Sample,Hour,Minute,Sec,Stamp,Quat1,Quat2,Quat3,Quat4,AccX,AccY,AccZ,Stamp2,Quat2_1,Quat2_2,Quat2_3,Quat2_4,Acc2_X,Acc2_Y,Acc2_Z,A0,A1,A2,A3,A4,A5,A6,A7,A8,A9,A10,A11,A12,A13,A14,Frame,Time,realTime,BrazoX,BrazoY,BrazoZ,angBrazoX,angBrazoY,angBrazoZ,EspaldaX,EspaldaY,EspaldaZ,refX,refY,refZ,type
2,16,49,15.17,4018.12,0.699203,-0.036579,0.695223,-0.16261,-0.96727,0.17365,-0.03265,4015,0.192787,-0.631103,0.310715,-0.684104,-0.96347,0.13771,-0.01095,2.02,2.8,2.89,3.16,2.99,2.88,2.74,3.74,3.24,3.83,3.95,4.01,3.89,3.76,3.77,2345,9.770833,60555.172833,33.852287,965.891663,-211.801987,1.79896828099366,2.43908818352797,2.22086870086543,18.427555,799.859314,153.809708,99.914368,1188.795898,-35.037319,"CRUZINT"
3,16,49,15.182,4018.14,0.699304,-0.036365,0.695172,-0.162444,-0.97093,0.17283,-0.03277,4015.02,0.193449,-0.631108,0.310984,-0.68379,-0.96472,0.15658,-0.00199,2.01,2.8,2.89,3.16,2.99,2.88,2.74,3.74,3.24,3.83,3.95,4.01,3.89,3.76,3.77,2348,9.783333,60555.185333,33.881145,965.929993,-211.822571,1.7989428768948,2.43892070157305,2.22105173949731,18.469244,799.874451,153.850922,99.934875,1188.798828,-35.01836,"CRUZINT"
4,16,49,15.189,4018.16,0.699434,-0.036114,0.695099,-0.162248,-0.97041,0.17303,-0.03294,4015.04,0.194024,-0.631095,0.311069,-0.683601,-0.9571,0.16366,-0.00473,2.02,2.8,2.89,3.16,2.99,2.88,2.74,3.74,3.24,3.83,3.95,4.01,3.89,3.75,3.77,2349,9.7875,60555.1895,33.902119,965.94635,-211.828781,1.798911416196,2.43884169577225,2.22114698432227,18.476105,799.885986,153.870102,99.945892,1188.796875,-35.005127,"CRUZINT"
5,16,49,15.195,4018.18,0.699586,-0.03593,0.694993,-0.162092,-0.96898,0.17458,-0.0353,4015.06,0.194167,-0.631445,0.310416,-0.683534,-0.95937,0.16833,-0.00685,2.02,2.8,2.89,3.16,2.99,2.88,2.75,3.74,3.24,3.83,3.95,4.01,3.89,3.76,3.77,2351,9.795833,60555.197833,33.938354,965.967529,-211.843994,1.7988093992753,2.43875397393145,2.22128338799934,18.500431,799.889465,153.894821,99.953255,1188.802002,-34.988235,"CRUZINT"
6,16,49,15.2,4018.2,0.699714,-0.035709,0.694896,-0.162002,-0.96652,0.17646,-0.03495,4015.08,0.193751,-0.632012,0.309314,-0.683627,-0.97121,0.17463,0.01226,2.03,2.8,2.89,3.16,2.99,2.88,2.75,3.74,3.24,3.83,3.95,4.01,3.89,3.76,3.77,2352,9.8,60555.202,33.961651,965.982544,-211.851959,1.79875527940406,2.43870996056404,2.22135315700064,18.5107,799.894531,153.908463,99.960037,1188.804932,-34.982983,"CRUZINT"
7,16,49,15.205,4018.22,0.699866,-0.035541,0.694776,-0.161894,-0.96655,0.17691,-0.03495,4015.1,0.193137,-0.632871,0.308275,-0.683476,-0.97604,0.17744,0.01742,2.03,2.8,2.89,3.16,2.99,2.88,2.75,3.74,3.24,3.83,3.95,4.01,3.89,3.76,3.77,2353,9.804167,60555.206167,33.983234,965.994202,-211.856415,1.79869435918719,2.43867174026641,2.22142009554236,18.516575,799.905823,153.928635,99.965576,1188.813721,-34.968433,"CRUZINT"
8,16,49,15.209,4018.24,0.699987,-0.035454,0.694666,-0.161869,-0.96655,0.17487,-0.03578,4015.12,0.192601,-0.633727,0.307607,-0.683135,-0.98708,0.18398,-0.0061,2.03,2.79,2.89,3.16,2.99,2.89,2.76,3.75,3.24,3.83,3.95,4.01,3.89,3.76,3.77,2354,9.808333,60555.210333,33.999119,966.009094,-211.866028,1.79863462160703,2.4386082132807,2.22151238290673,18.531187,799.907654,153.938614,99.963463,1188.813232,-34.95929,"CRUZINT"
9,16,49,15.22,4018.26,0.699975,-0.035384,0.694677,-0.161883,-0.96596,0.1759,-0.03184,4015.14,0.192804,-0.634057,0.307903,-0.682637,-0.99437,0.16139,-0.04011,2.04,2.79,2.89,3.15,2.99,2.89,2.76,3.74,3.24,3.84,3.95,4.01,3.89,3.76,3.77,2357,9.820833,60555.222833,34.059238,966.049561,-211.890564,1.79841675115762,2.43848161758923,2.22174134335477,18.552675,799.918518,153.965057,99.962006,1188.831177,-34.929531,"CRUZINT"
10,16,49,15.225,4018.28,0.700061,-0.035404,0.694585,-0.161905,-0.96586,0.17904,-0.0369,4015.16,0.193535,-0.633706,0.308231,-0.682608,-0.9838,0.16026,-0.04252,2.04,2.79,2.89,3.15,2.99,2.89,2.77,3.75,3.24,3.84,3.95,4.01,3.89,3.76,3.77,2358,9.825,60555.227,34.078976,966.061829,-211.896454,1.79833939300402,2.43846767178761,2.22179088798933,18.564173,799.921814,153.974243,99.958618,1188.837036,-34.92691,"CRUZINT"
11,16,49,15.229,4018.3,0.700092,-0.035474,0.694517,-0.162048,-0.96774,0.17868,-0.03357,4015.18,0.193674,-0.633434,0.308395,-0.682748,-0.98029,0.17883,-0.03015,2.04,2.79,2.89,3.15,2.99,2.89,2.77,3.75,3.24,3.84,3.95,4.01,3.89,3.76,3.77,2359,9.829167,60555.231167,34.097275,966.079651,-211.904465,1.79828166701657,2.43840130332834,2.22188511196396,18.571644,799.922424,153.979507,99.959579,1188.839233,-34.915489,"CRUZINT"
12,16,49,15.278,4018.32,0.700153,-0.035647,0.694425,-0.162138,-0.96943,0.17817,-0.03383,4015.2,0.193728,-0.632974,0.308624,-0.683056,-0.97302,0.17883,-0.0206,2.04,2.79,2.89,3.15,2.99,2.89,2.77,3.75,3.24,3.84,3.96,4.01,3.89,3.76,3.77,2371,9.879167,60555.281167,34.242813,966.287476,-212.12204,1.79770368351906,2.43759637226273,2.22297163231227,18.620319,799.924805,153.97049,99.939018,1188.889404,-34.885216,"CRUZINT"
13,16,49,15.283,4018.34,0.7002,-0.035825,0.694343,-0.162245,-0.96922,0.17439,-0.03322,4015.22,0.193467,-0.632579,0.308727,-0.683449,-0.97138,0.17214,-0.01193,2.05,2.79,2.89,3.15,2.99,2.9,2.77,3.75,3.24,3.84,3.95,4.01,3.89,3.76,3.77,2372,9.883333,60555.285333,34.133591,966.337463,-212.222763,1.79803497798713,2.43716361876035,2.22326363806988,18.615595,799.927795,153.963806,99.934013,1188.891235,-34.89135,"CRUZINT"
14,16,49,15.287,4018.36,0.700191,-0.035959,0.69436,-0.162184,-0.96899,0.16818,-0.03214,4015.24,0.193098,-0.632245,0.308776,-0.683839,-0.96788,0.17048,-0.00724,2.05,2.79,2.89,3.15,2.99,2.9,2.78,3.75,3.24,3.84,3.95,4.01,3.89,3.75,3.77,2373,9.8875,60555.2895,34.1325,966.358948,-212.24971,1.79802763948905,2.43706511234454,2.22336773313504,18.617352,799.926208,153.955917,99.93129,1188.89563,-34.89291,"CRUZINT"
15,16,49,15.313,4018.38,0.700257,-0.036054,0.694284,-0.162204,-0.9687,0.16638,-0.0346,4015.26,0.192528,-0.632161,0.308845,-0.684046,-0.96722,0.17625,-0.00126,2.05,2.78,2.89,3.14,2.99,2.9,2.78,3.75,3.24,3.84,3.96,4.01,3.89,3.76,3.77,2379,9.9125,60555.3145,34.090122,966.53717,-212.476227,1.79816718731745,2.43617133355565,2.2242183477248,18.598513,799.926453,153.884277,99.931976,1188.916016,-34.913052,"CRUZINT"
16,16,49,15.318,4018.4,0.700203,-0.036215,0.694359,-0.162079,-0.9677,0.16413,-0.03371,4015.28,0.19202,-0.632075,0.309052,-0.684176,-0.971,0.17878,-0.0063,2.06,2.78,2.89,3.14,2.99,2.9,2.78,3.75,3.24,3.84,3.96,4.01,3.89,3.76,3.77,2380,9.916667,60555.318667,34.084019,966.569275,-212.518127,1.7981976919761,2.43602231185495,2.22435686354206,18.596655,799.920715,153.872498,99.934814,1188.920776,-34.922127,"CRUZINT"
17,16,49,15.354,4018.42,0.700244,-0.036292,0.694305,-0.162114,-0.96791,0.16544,-0.03512,4015.3,0.191703,-0.632014,0.309194,-0.684257,-0.97574,0.17113,-0.01549,2.06,2.78,2.89,3.14,2.99,2.9,2.78,3.75,3.24,3.84,3.95,4.01,3.89,3.76,3.77,2389,9.954167,60555.356167,34.070045,966.883362,-212.873901,1.79815715031562,2.43474823572356,2.22567800780498,18.52961,799.910339,153.780838,99.906387,1188.983521,-34.979565,"CRUZINT"
18,16,49,15.359,4018.44,0.70026,-0.036299,0.694294,-0.162095,-0.96992,0.16338,-0.03285,4015.32,0.191479,-0.631816,0.309637,-0.684302,-0.98143,0.15635,-0.02583,2.06,2.78,2.89,3.14,2.99,2.9,2.78,3.75,3.23,3.84,3.95,4.01,3.89,3.76,3.77,2390,9.958333,60555.360333,34.069935,966.913818,-212.912811,1.79808898187915,2.43462448357822,2.22583550338582,18.520882,799.90979,153.772919,99.887451,1188.992432,-34.980446,"CRUZINT"
19,16,49,15.393,4018.46,0.700339,-0.03636,0.694255,-0.161905,-0.96966,0.16616,-0.03564,4015.34,0.191377,-0.631541,0.309941,-0.684447,-0.97592,0.16108,-0.02162,2.06,2.77,2.89,3.14,2.99,2.9,2.78,3.75,3.24,3.84,3.95,4.01,3.89,3.76,3.77,2398,9.991667,60555.393667,34.061359,967.160278,-213.175964,1.79771474972329,2.43382031090086,2.22682736621531,18.439075,799.906433,153.72023,99.769173,1189.075439,-35.022629,"CRUZINT"
20,16,49,15.436,4018.48,0.700363,-0.036323,0.694237,-0.161885,-0.9668,0.16908,-0.0373,4015.36,0.191256,-0.631382,0.310034,-0.684586,-0.97151,0.17294,-0.01277,2.07,2.77,2.88,3.13,2.99,2.9,2.78,3.75,3.23,3.84,3.96,4.01,3.89,3.76,3.77,2409,10.0375,60555.4395,34.063141,967.432129,-213.384918,1.79697300835621,2.4331654078404,2.2278323497466,18.341999,799.87561,153.703033,99.544609,1189.171265,-35.0406,"CRUZINT"
21,16,49,15.441,4018.5,0.7004,-0.036253,0.694212,-0.161849,-0.96695,0.17038,-0.03721,4015.38,0.191256,-0.631095,0.310383,-0.684692,-0.96941,0.16827,-0.01641,2.07,2.77,2.88,3.13,2.99,2.9,2.78,3.75,3.23,3.84,3.95,4.01,3.89,3.76,3.77,2410,10.041667,60555.443667,34.033752,967.432434,-213.393539,1.79696097864216,2.43316141233395,2.22784186777642,18.332518,799.873108,153.701035,99.515175,1189.182251,-35.037819,"CRUZINT"
22,16,49,15.446,4018.52,0.700428,-0.036181,0.694192,-0.161833,-0.96971,0.17085,-0.03824,4015.4,0.191343,-0.630991,0.310414,-0.684749,-0.96821,0.15536,-0.0146,2.07,2.77,2.88,3.13,2.99,2.9,2.78,3.75,3.23,3.84,3.96,4.01,3.89,3.76,3.77,2411,10.045833,60555.447833,34.002197,967.448975,-213.40477,1.7969862162024,2.43308601009136,2.22790749784496,18.326345,799.871094,153.698181,99.490112,1189.182129,-35.035755,"CRUZINT"
23,16,49,15.49,4018.54,0.70043,-0.036133,0.694182,-0.161873,-0.96849,0.17381,-0.03788,4015.42,0.191199,-0.630772,0.310491,-0.684957,-0.96258,0.16563,-0.00541,2.08,2.77,2.88,3.13,2.99,2.9,2.78,3.75,3.24,3.84,3.95,4.01,3.89,3.76,3.77,2422,10.091667,60555.493667,33.621536,967.580872,-213.440598,1.79733515368464,2.43265398105554,2.22819108721641,18.252316,799.829407,153.721344,99.202682,1189.211426,-35.022518,"CRUZINT"
24,16,49,15.495,4018.56,0.700403,-0.036114,0.694185,-0.161982,-0.9677,0.17341,-0.03805,4015.44,0.190984,-0.630648,0.310602,-0.68508,-0.96183,0.17494,-0.0082,2.08,2.76,2.88,3.13,2.99,2.9,2.78,3.75,3.24,3.84,3.96,4.01,3.89,3.76,3.77,2423,10.095833,60555.497833,33.585629,967.587463,-213.435242,1.79738180220053,2.43261132780163,2.22821355345266,18.245449,799.825623,153.727692,99.178726,1189.205444,-35.015564,"CRUZINT"
25,16,49,15.513,4018.58,0.700355,-0.036148,0.694201,-0.162117,-0.96847,0.1739,-0.03533,4015.46,0.190791,-0.630742,0.310398,-0.68514,-0.9679,0.1649,-0.01519,2.08,2.76,2.88,3.13,2.99,2.9,2.78,3.75,3.24,3.84,3.96,4.02,3.89,3.76,3.77,2427,10.1125,60555.5145,33.450005,967.601685,-213.423737,1.79748693172602,2.43255631007125,2.22822217356056,18.222904,799.815918,153.745758,99.072838,1189.208618,-35.002541,"CRUZINT"
26,16,49,15.518,4018.6,0.700228,-0.036168,0.694272,-0.162359,-0.96657,0.17453,-0.03507,4015.48,0.190512,-0.630666,0.310263,-0.685348,-0.97189,0.16235,-0.02356,2.08,2.76,2.88,3.13,2.99,2.9,2.78,3.75,3.23,3.84,3.96,4.01,3.89,3.76,3.77,2428,10.116667,60555.518667,33.420876,967.603516,-213.419922,1.79750174725815,2.4325344709616,2.22823777726609,18.220591,799.808472,153.746521,99.048973,1189.209839,-34.992268,"CRUZINT"
27,16,49,15.553,4018.62,0.700186,-0.036231,0.694273,-0.162516,-0.96648,0.17412,-0.03317,4015.5,0.190885,-0.630622,0.309661,-0.685557,-0.97105,0.16711,-0.0225,2.08,2.76,2.88,3.13,2.99,2.9,2.78,3.75,3.23,3.84,3.96,4.01,3.89,3.76,3.77,2437,10.154167,60555.556167,33.188137,967.619141,-213.351563,1.79755650241923,2.432525046558,2.22822261072189,18.185127,799.787903,153.782501,98.829414,1189.215576,-34.933933,"CRUZINT"
28,16,49,15.558,4018.64,0.70014,-0.036323,0.694276,-0.16268,-0.96655,0.17473,-0.03397,4015.52,0.190858,-0.630622,0.309658,-0.685566,-0.97076,0.17051,-0.02291,2.08,2.76,2.88,3.12,2.99,2.9,2.78,3.75,3.24,3.84,3.96,4.02,3.89,3.76,3.77,2438,10.158333,60555.560333,33.167442,967.618591,-213.343826,1.79759940570039,2.43256180390433,2.2281656249414,18.177359,799.784729,153.78952,98.820862,1189.221802,-34.939537,"CRUZINT"
29,16,49,15.593,4018.66,0.700056,-0.036428,0.694309,-0.162879,-0.96774,0.17535,-0.03479,4015.54,0.1909,-0.630629,0.309661,-0.685547,-0.97123,0.16581,-0.02851,2.09,2.76,2.88,3.12,2.99,2.9,2.78,3.75,3.23,3.84,3.96,4.01,3.89,3.76,3.77,2446,10.191667,60555.593667,32.895832,967.63446,-213.322052,1.79806669761202,2.43231733204383,2.22820352715313,18.158682,799.776489,153.822418,98.69635,1189.238892,-34.87059,"CRUZINT"
30,16,49,15.598,4018.68,0.700011,-0.036541,0.694314,-0.163027,-0.96838,0.17561,-0.03376,4015.56,0.190984,-0.630723,0.309286,-0.685606,-0.9687,0.17034,-0.02068,2.09,2.76,2.88,3.12,2.99,2.9,2.78,3.75,3.23,3.84,3.96,4.01,3.89,3.76,3.77,2448,10.2,60555.602,32.848454,967.621643,-213.292831,1.79817591392278,2.43239020295101,2.22807949228595,18.158211,799.777954,153.837769,98.680099,1189.240112,-34.8699,"CRUZINT"
31,16,49,15.633,4018.7,0.699935,-0.03663,0.694354,-0.163163,-0.96793,0.17428,-0.03271,4015.58,0.190823,-0.630913,0.308966,-0.68562,-0.96092,0.17514,-0.01681,2.09,2.75,2.88,3.12,2.99,2.9,2.78,3.75,3.23,3.84,3.96,4.01,3.89,3.76,3.77,2456,10.233333,60555.635333,32.670757,967.576416,-213.195801,1.79868437330932,2.43259474308378,2.22763933884215,18.140638,799.761475,153.890137,98.648689,1189.239258,-34.870239,"CRUZINT"
32,16,49,15.646,4018.72,0.699917,-0.036701,0.69435,-0.163239,-0.97011,0.1735,-0.0338,4015.6,0.190759,-0.631145,0.308657,-0.685564,-0.96624,0.17261,-0.02227,2.09,2.75,2.88,3.12,2.99,2.9,2.78,3.75,3.23,3.84,3.96,4.01,3.89,3.76,3.77,2459,10.245833,60555.647833,32.613228,967.566589,-213.158173,1.79889343547516,2.432651896386,2.22748573696953,18.139652,799.758789,153.907059,98.649452,1189.236328,-34.87133,"CRUZINT"
33,16,49,15.691,4018.74,0.699914,-0.036782,0.694334,-0.163304,-0.97067,0.17276,-0.03408,4015.62,0.190603,-0.63143,0.308439,-0.685443,-0.97482,0.1709,-0.02347,2.09,2.75,2.88,3.11,2.99,2.9,2.78,3.75,3.23,3.85,3.96,4.01,3.89,3.76,3.77,2470,10.291667,60555.693667,32.476295,967.576172,-213.043884,1.79944386145796,2.43276000456442,2.22712419240028,18.121721,799.788696,153.915054,98.670807,1189.272217,-34.836052,"CRUZINT"
34,16,49,15.696,4018.76,0.699804,-0.036881,0.694396,-0.163485,-0.96744,0.17477,-0.03434,4015.64,0.190554,-0.63166,0.308256,-0.685327,-0.97553,0.16933,-0.02328,2.1,2.75,2.88,3.11,2.99,2.9,2.78,3.75,3.23,3.84,3.95,4.01,3.89,3.76,3.77,2471,10.295833,60555.697833,32.473377,967.577454,-213.035324,1.79943327278522,2.43279788372878,2.22709030876041,18.118891,799.793213,153.910004,98.664604,1189.279785,-34.836067,"CRUZINT"
35,16,49,15.714,4018.78,0.6998,-0.036961,0.694368,-0.163607,-0.96554,0.17437,-0.03167,4015.66,0.190667,-0.631831,0.308079,-0.685218,-0.97185,0.16999,-0.02417,2.1,2.75,2.88,3.11,2.99,2.9,2.78,3.75,3.24,3.84,3.96,4.01,3.89,3.76,3.77,2475,10.3125,60555.7145,32.455006,967.581421,-213.00705,1.79945244638216,2.43280413431193,2.22707516372197,18.112135,799.799988,153.910446,98.653938,1189.29248,-34.805237,"CRUZINT"
36,16,49,15.733,4018.8,0.699774,-0.037004,0.694373,-0.163685,-0.96877,0.17334,-0.03362,4015.68,0.190674,-0.631994,0.308,-0.685101,-0.97323,0.16954,-0.02729,2.1,2.75,2.88,3.11,2.99,2.9,2.79,3.75,3.23,3.84,3.95,4.01,3.89,3.76,3.77,2480,10.333333,60555.735333,32.433548,967.592712,-212.966766,1.79942973631915,2.43290471296222,2.22698272445433,18.114063,799.802734,153.906982,98.627182,1189.326782,-34.783215,"CRUZINT"
37,16,49,15.741,4018.82,0.699778,-0.037025,0.694357,-0.163737,-0.97299,0.17247,-0.03183,4015.7,0.190664,-0.632107,0.307807,-0.685086,-0.97503,0.17503,-0.0229,2.1,2.75,2.88,3.11,2.98,2.9,2.78,3.75,3.23,3.84,3.96,4.01,3.88,3.76,3.77,2482,10.341667,60555.743667,32.423225,967.60553,-212.946716,1.79941418618795,2.43289749705959,2.2269972014003,18.118349,799.803528,153.909653,98.611023,1189.333496,-34.763618,"CRUZINT"
38,16,49,15.773,4018.84,0.699815,-0.037003,0.694325,-0.163713,-0.9706,0.172,-0.03284,4015.72,0.190561,-0.632184,0.307678,-0.685101,-0.97276,0.1763,-0.01627,2.11,2.74,2.88,3.11,2.99,2.9,2.79,3.75,3.23,3.85,3.96,4.01,3.89,3.76,3.77,2490,10.375,60555.777,32.387352,967.654419,-212.900818,1.79939983437544,2.43284253883975,2.22705993193097,18.107849,799.815857,153.9272,98.572929,1189.378174,-34.698193,"CRUZINT"
39,16,49,15.778,4018.86,0.699652,-0.037005,0.694508,-0.163634,-0.96767,0.17156,-0.03385,4015.74,0.190518,-0.632221,0.307666,-0.685085,-0.97025,0.17273,-0.02012,2.11,2.74,2.88,3.11,2.99,2.9,2.79,3.75,3.23,3.84,3.96,4.01,3.88,3.76,3.77,2491,10.379167,60555.781167,32.386623,967.663025,-212.899445,1.79938527451246,2.43281753357015,2.22709213916892,18.111568,799.815063,153.933151,98.569313,1189.38623,-34.685989,"CRUZINT"
40,16,49,15.834,4018.88,0.699642,-0.037007,0.694523,-0.16361,-0.96613,0.17353,-0.03289,4015.76,0.190484,-0.632213,0.307549,-0.685155,-0.97227,0.17358,-0.01985,2.11,2.74,2.88,3.11,2.99,2.9,2.79,3.75,3.23,3.84,3.95,4.01,3.88,3.76,3.77,2504,10.433333,60555.835333,32.381905,967.809265,-212.896698,1.7991360752284,2.43240972786077,2.22762265099597,18.080626,799.818298,153.995895,98.496262,1189.463501,-34.553612,"CRUZINT"
41,16,49,15.839,4018.9,0.699525,-0.036968,0.694643,-0.163616,-0.96749,0.17446,-0.03362,4015.78,0.19033,-0.632191,0.307593,-0.685198,-0.9766,0.1744,-0.02215,2.11,2.74,2.88,3.1,2.99,2.9,2.79,3.75,3.23,3.84,3.95,4.01,3.88,3.76,3.77,2505,10.4375,60555.8395,32.38913,967.821533,-212.903229,1.79909951889047,2.43237251098688,2.22767735344638,18.075092,799.812317,153.995895,98.494743,1189.474243,-34.543022,"CRUZINT"
42,16,49,15.857,4018.92,0.699522,-0.036944,0.694657,-0.163575,-0.96835,0.17559,-0.03456,4015.8,0.190668,-0.631949,0.307565,-0.685339,-0.97599,0.16654,-0.02774,2.11,2.74,2.88,3.1,2.99,2.9,2.79,3.75,3.23,3.84,3.95,4.01,3.88,3.76,3.76,2510,10.458333,60555.860333,32.427731,967.880127,-212.903137,1.79884548043923,2.43223040911223,2.22793831696045,18.06407,799.805359,154.027985,98.46312,1189.512695,-34.477028,"CRUZINT"
43,16,49,15.862,4018.94,0.699507,-0.036954,0.694675,-0.163555,-0.96842,0.17449,-0.03737,4015.82,0.190684,-0.631786,0.307669,-0.685439,-0.9717,0.16997,-0.02415,2.11,2.74,2.88,3.1,2.99,2.9,2.79,3.75,3.23,3.84,3.94,4,3.87,3.77,3.75,2511,10.4625,60555.8645,32.441078,967.890747,-212.900696,1.79876990354485,2.43221761857798,2.22798579540809,18.062752,799.809937,154.02713,98.453979,1189.517578,-34.466267,"CRUZINT"
44,16,49,15.893,4018.96,0.699462,-0.036901,0.694696,-0.163674,-0.96674,0.17449,-0.03573,4015.84,0.190784,-0.631526,0.307878,-0.685557,-0.97084,0.17419,-0.02553,2.11,2.74,2.88,3.1,2.99,2.9,2.79,3.75,3.23,3.84,3.94,3.99,3.85,3.77,3.75,2518,10.491667,60555.893667,32.53809,967.934387,-212.888763,1.79822279978658,2.43220414491471,2.22824830711848,18.037825,799.800659,154.029938,98.395622,1189.559692,-34.392799,"CRUZINT"
45,16,49,15.898,4018.98,0.699466,-0.036903,0.694698,-0.163647,-0.96742,0.17238,-0.03615,4015.86,0.191216,-0.631089,0.308143,-0.685719,-0.96936,0.16649,-0.0304,2.11,2.74,2.88,3.1,2.99,2.9,2.79,3.75,3.23,3.84,3.95,3.99,3.84,3.77,3.75,2520,10.5,60555.902,32.583767,967.933533,-212.880432,1.79794806571794,2.43224982666055,2.22832632250081,18.030325,799.793396,154.038071,98.362167,1189.564331,-34.369007,"CRUZINT"
46,16,49,15.933,4019,0.699503,-0.036872,0.69466,-0.163657,-0.96784,0.1724,-0.0339,4015.88,0.19163,-0.630574,0.30849,-0.685922,-0.9683,0.16581,-0.03486,2.11,2.74,2.88,3.1,2.99,2.9,2.79,3.75,3.23,3.84,3.95,3.98,3.82,3.78,3.75,2528,10.533333,60555.935333,32.828606,967.905945,-212.903015,1.79683003076371,2.43240487378724,2.22867385234417,18.001444,799.7677,154.048569,98.291763,1189.576294,-34.303154,"CRUZINT"
47,16,49,15.938,4019.02,0.699516,-0.036867,0.694655,-0.163625,-0.96901,0.17177,-0.03284,4015.9,0.1921,-0.629932,0.308743,-0.686266,-0.97028,0.17289,-0.03287,2.11,2.74,2.88,3.1,2.99,2.9,2.79,3.75,3.23,3.84,3.95,3.97,3.82,3.78,3.75,2529,10.5375,60555.9395,32.867176,967.893372,-212.909409,1.79663584982052,2.43245111493244,2.22871424313993,17.99732,799.766357,154.047272,98.275665,1189.574585,-34.298546,"CRUZINT"
48,16,49,15.993,4019.04,0.699533,-0.036868,0.694647,-0.163586,-0.9673,0.17102,-0.03313,4015.92,0.19246,-0.629361,0.308989,-0.686578,-0.96563,0.17976,-0.02347,2.11,2.74,2.88,3.1,2.99,2.9,2.79,3.75,3.23,3.84,3.95,3.96,3.81,3.78,3.74,2542,10.591667,60555.993667,33.375446,967.801331,-212.948898,1.79479492266228,2.43297624698232,2.22900510083253,17.952116,799.742371,154.06218,98.252708,1189.55835,-34.290192,"CRUZINT"
49,16,49,15.998,4019.06,0.699376,-0.036842,0.694809,-0.163573,-0.96654,0.17161,-0.03224,4015.94,0.192653,-0.628931,0.309173,-0.686836,-0.96436,0.17826,-0.01732,2.11,2.74,2.88,3.1,2.99,2.9,2.79,3.75,3.23,3.84,3.95,3.95,3.81,3.78,3.74,2544,10.6,60556.002,33.431072,967.800171,-212.97049,1.79463372811137,2.43297355227962,2.22907997158128,17.950354,799.749268,154.052216,98.263168,1189.559204,-34.29245,"CRUZINT"
50,16,49,16.013,4019.08,0.699352,-0.036861,0.694839,-0.163543,-0.9668,0.1735,-0.03392,4015.96,0.192718,-0.628704,0.309299,-0.686968,-0.96779,0.17285,-0.01678,2.11,2.74,2.88,3.1,2.99,2.9,2.79,3.75,3.23,3.84,3.95,3.95,3.81,3.79,3.73,2547,10.6125,60556.0145,33.525299,967.81189,-213.011307,1.79433605047539,2.43290844599679,2.22927949150191,17.941626,799.749939,154.050201,98.272453,1189.557983,-34.287628,"CRUZINT"
51,16,49,16.021,4019.1,0.699249,-0.036842,0.694931,-0.163596,-0.96749,0.17276,-0.03216,4015.98,0.192964,-0.628386,0.30963,-0.68704,-0.97351,0.16982,-0.02373,2.11,2.74,2.88,3.1,2.99,2.9,2.79,3.75,3.24,3.84,3.96,3.94,3.82,3.8,3.72,2549,10.620833,60556.022833,33.460049,967.818604,-213.089111,1.79458822760647,2.43265145863131,2.22942917875562,17.938395,799.753174,154.040085,98.291237,1189.557617,-34.297169,"CRUZINT"
52,16,49,16.077,4019.12,0.699245,-0.036859,0.69494,-0.163575,-0.96865,0.17383,-0.03326,4016,0.193208,-0.628217,0.309765,-0.687066,-0.97424,0.17344,-0.02417,2.11,2.74,2.88,3.1,2.99,2.9,2.79,3.75,3.23,3.84,3.96,3.93,3.82,3.81,3.72,2562,10.675,60556.077,33.834793,967.840271,-213.096939,1.79352241041619,2.43293141112177,2.22961880682955,17.925991,799.756042,153.993668,98.347809,1189.58252,-34.301506,"CRUZINT"
53,16,49,16.082,4019.14,0.699249,-0.036876,0.694935,-0.163576,-0.9718,0.17097,-0.03275,4016.02,0.193334,-0.628068,0.309897,-0.687107,-0.97358,0.17739,-0.02377,2.11,2.74,2.88,3.1,2.99,2.9,2.79,3.75,3.23,3.84,3.96,3.91,3.83,3.81,3.72,2564,10.683333,60556.085333,33.873344,967.851501,-213.112625,1.79340175303966,2.43290867623201,2.22969569778311,17.93376,799.7547,153.985519,98.351295,1189.587036,-34.301365,"CRUZINT"
54,16,49,16.087,4019.16,0.698979,-0.036846,0.695228,-0.163488,-0.97124,0.17266,-0.03076,4016.04,0.193397,-0.62798,0.309969,-0.687138,-0.97217,0.17568,-0.02609,2.11,2.74,2.88,3.1,2.99,2.9,2.79,3.75,3.23,3.85,3.96,3.9,3.83,3.82,3.72,2565,10.6875,60556.0895,33.898838,967.84845,-213.115585,1.79335563236004,2.43294615786622,2.2296779515249,17.929893,799.758118,153.982819,98.363319,1189.589966,-34.309345,"CRUZINT"
55,16,49,16.13,4019.18,0.699021,-0.036832,0.695194,-0.163459,-0.96828,0.17308,-0.03338,4016.06,0.193826,-0.627797,0.309995,-0.687173,-0.97065,0.16792,-0.03127,2.11,2.74,2.88,3.1,2.99,2.9,2.79,3.75,3.23,3.85,3.97,3.88,3.84,3.83,3.72,2575,10.729167,60556.131167,34.121685,967.851257,-213.203873,1.79276894215249,2.43288360593587,2.23000236998986,17.950409,799.777527,153.957611,98.422058,1189.591309,-34.314316,"CRUZINT"
56,16,49,16.135,4019.2,0.698978,-0.036789,0.695261,-0.163368,-0.96781,0.17172,-0.0312,4016.08,0.194048,-0.627626,0.310174,-0.687184,-0.96523,0.17025,-0.02544,2.11,2.74,2.88,3.1,2.99,2.9,2.79,3.75,3.24,3.85,3.98,3.86,3.85,3.83,3.72,2576,10.733333,60556.135333,34.135757,967.849243,-213.20578,1.79274388432395,2.43291091141379,2.22998561625449,17.954718,799.779602,153.956406,98.428459,1189.592651,-34.321571,"CRUZINT"
57,16,49,16.155,4019.22,0.69899,-0.036755,0.695261,-0.163321,-0.97013,0.17304,-0.03156,4016.1,0.193933,-0.627797,0.310162,-0.687067,-0.96504,0.17679,-0.02049,2.11,2.74,2.88,3.1,2.99,2.9,2.79,3.75,3.24,3.85,3.99,3.85,3.86,3.84,3.72,2581,10.754167,60556.156167,34.180603,967.834656,-213.226791,1.7926836530917,2.43292779492947,2.229995095124,17.967848,799.788391,153.943771,98.456223,1189.581543,-34.340176,"CRUZINT"
58,16,49,16.16,4019.24,0.699009,-0.036741,0.695245,-0.163311,-0.96774,0.17287,-0.03259,4016.12,0.19397,-0.627739,0.310264,-0.687063,-0.96633,0.17671,-0.02271,2.11,2.74,2.88,3.1,2.99,2.91,2.79,3.75,3.24,3.86,3.99,3.85,3.87,3.84,3.73,2582,10.758333,60556.160333,34.191174,967.828613,-213.230988,1.79271401692636,2.43292530256911,2.22998417456589,17.975811,799.792175,153.945801,98.475777,1189.576172,-34.34597,"CRUZINT"
59,16,49,16.193,4019.26,0.698979,-0.03671,0.695277,-0.163313,-0.96755,0.17432,-0.0328,4016.14,0.193993,-0.627713,0.310345,-0.687044,-0.96899,0.16778,-0.03057,2.11,2.74,2.88,3.1,2.99,2.92,2.79,3.75,3.24,3.87,3.99,3.84,3.88,3.85,3.73,2590,10.791667,60556.193667,34.289253,967.783997,-213.261108,1.79257925379635,2.43293832778151,2.23003062566413,17.991619,799.798523,153.946732,98.53759,1189.541382,-34.359436,"CRUZINT"
60,16,49,16.198,4019.28,0.699006,-0.036709,0.695253,-0.163302,-0.96938,0.17278,-0.03315,4016.16,0.194991,-0.627699,0.309382,-0.687208,-0.96892,0.16821,-0.02935,2.11,2.74,2.88,3.1,2.99,2.92,2.79,3.76,3.24,3.88,3.99,3.84,3.88,3.85,3.73,2592,10.8,60556.202,34.319523,967.772644,-213.266953,1.79253218945934,2.43293983757787,2.23004994144934,18.002697,799.79895,153.94548,98.554367,1189.530029,-34.361053,"CRUZINT"
61,16,49,16.235,4019.3,0.699008,-0.0367,0.69524,-0.163349,-0.96919,0.17344,-0.03231,4016.18,0.19495,-0.627672,0.309431,-0.687222,-0.96781,0.17735,-0.02253,2.11,2.74,2.88,3.1,2.99,2.93,2.8,3.76,3.24,3.89,3.99,3.84,3.89,3.85,3.73,2600,10.833333,60556.235333,34.340202,967.722778,-213.290497,1.79270927141853,2.43286063607348,2.23005227640241,18.017006,799.792419,153.94577,98.629494,1189.478882,-34.372944,"CRUZINT"
62,16,49,16.24,4019.32,0.699037,-0.036743,0.695203,-0.163371,-0.96786,0.17468,-0.03268,4016.2,0.194833,-0.627631,0.309451,-0.687284,-0.96919,0.17901,-0.02122,2.11,2.74,2.88,3.1,2.99,2.94,2.82,3.77,3.25,3.9,3.99,3.84,3.89,3.86,3.73,2602,10.841667,60556.243667,34.341686,967.714417,-213.298187,1.79275632823815,2.43281699211729,2.23007594975311,18.022903,799.798096,153.939865,98.644615,1189.463013,-34.374531,"CRUZINT"
63,16,49,16.275,4019.34,0.699087,-0.036733,0.695157,-0.163352,-0.96662,0.17454,-0.03312,4016.22,0.194756,-0.627568,0.309517,-0.687334,-0.97226,0.16872,-0.03254,2.11,2.74,2.88,3.1,2.99,2.96,2.83,3.78,3.24,3.9,3.99,3.84,3.89,3.85,3.73,2610,10.875,60556.277,34.41177,967.62262,-213.252991,1.79259403136097,2.43303488190973,2.22992553532536,18.002222,799.802002,153.938065,98.66526,1189.401611,-34.372959,"CRUZINT"
64,16,49,16.28,4019.36,0.699061,-0.036748,0.695197,-0.163293,-0.96704,0.1736,-0.03418,4016.24,0.195024,-0.627407,0.30975,-0.6873,-0.97255,0.15548,-0.03659,2.11,2.74,2.88,3.1,2.99,2.97,2.85,3.78,3.24,3.91,3.99,3.84,3.89,3.86,3.73,2611,10.879167,60556.281167,34.419456,967.608154,-213.243362,1.7925572368088,2.43310646079654,2.22986879078522,18.003689,799.801514,153.936874,98.662323,1189.400269,-34.37682,"CRUZINT"
65,16,49,16.314,4019.38,0.699098,-0.036755,0.695163,-0.163277,-0.96851,0.1716,-0.03409,4016.26,0.195449,-0.627194,0.309754,-0.687371,-0.97316,0.16511,-0.03219,2.11,2.74,2.88,3.1,2.99,2.98,2.87,3.79,3.23,3.92,3.99,3.84,3.89,3.85,3.73,2619,10.9125,60556.3145,34.38773,967.486023,-213.202438,1.7926630812439,2.43326994526657,2.22965501209924,18.01759,799.786804,153.940689,98.668076,1189.334473,-34.364895,"CRUZINT"
66,16,49,16.319,4019.4,0.699116,-0.036789,0.69517,-0.163163,-0.96936,0.17174,-0.03489,4016.28,0.195716,-0.62705,0.309693,-0.687454,-0.96931,0.17226,-0.02841,2.11,2.74,2.88,3.1,2.99,2.99,2.88,3.8,3.23,3.93,3.99,3.85,3.89,3.86,3.73,2621,10.920833,60556.322833,34.404316,967.448975,-213.181061,1.79261101097875,2.43340617348783,2.22953905716727,18.027719,799.786682,153.948914,98.668991,1189.320435,-34.37262,"CRUZINT"
67,16,49,16.355,4019.42,0.699141,-0.03675,0.695155,-0.16313,-0.96774,0.17051,-0.0336,4016.3,0.196004,-0.626978,0.309599,-0.68748,-0.96507,0.1748,-0.03059,2.11,2.74,2.88,3.1,2.99,2.99,2.91,3.81,3.23,3.94,3.99,3.85,3.89,3.85,3.73,2629,10.954167,60556.356167,34.52578,967.322388,-213.162262,1.79226854582393,2.43383977943734,2.2292482247382,18.163181,799.801086,153.901093,98.689873,1189.265869,-34.42934,"CRUZINT"
68,16,49,16.36,4019.44,0.699164,-0.036752,0.695129,-0.163144,-0.96753,0.17186,-0.03502,4016.32,0.196345,-0.627012,0.30962,-0.687343,-0.97285,0.17487,-0.03212,2.11,2.74,2.88,3.1,2.99,2.99,2.92,3.81,3.22,3.94,3.99,3.85,3.89,3.86,3.73,2630,10.958333,60556.360333,34.543667,967.31543,-213.175644,1.79220475619731,2.43389669167883,2.22921837743653,18.190905,799.812439,153.883392,98.690269,1189.272095,-34.447704,"CRUZINT"
69,16,49,16.393,4019.46,0.699131,-0.036709,0.695105,-0.163396,-0.96755,0.17489,-0.03301,4016.34,0.197001,-0.626928,0.309858,-0.687124,-0.98682,0.16982,-0.03083,2.11,2.74,2.88,3.1,2.99,2.98,2.94,3.82,3.22,3.94,3.99,3.85,3.9,3.86,3.73,2638,10.991667,60556.393667,34.775669,967.356323,-213.28183,1.79143276504339,2.43419346895337,2.22925666699635,18.426052,799.984924,153.668243,98.696472,1189.349243,-34.561218,"CRUZINT"
70,16,49,16.399,4019.48,0.699149,-0.036786,0.695076,-0.163422,-0.96858,0.17618,-0.03036,4016.36,0.19804,-0.626589,0.310408,-0.686886,-0.98213,0.16963,-0.03151,2.11,2.74,2.88,3.1,2.99,2.98,2.95,3.83,3.21,3.94,3.99,3.86,3.89,3.86,3.73,2640,11,60556.402,34.844681,967.372925,-213.293365,1.79129565451473,2.43437259856572,2.22913433421023,18.464748,800.061401,153.628754,98.726074,1189.398682,-34.601948,"CRUZINT"
71,16,49,16.435,4019.5,0.698814,-0.036774,0.695414,-0.16342,-0.96791,0.17535,-0.02502,4016.38,0.199179,-0.626119,0.311242,-0.686609,-0.96926,0.1616,-0.04454,2.11,2.74,2.88,3.1,2.99,2.98,2.96,3.83,3.2,3.95,3.99,3.86,3.89,3.85,3.73,2648,11.033333,60556.435333,35.333603,967.370117,-213.224213,1.79015476852691,2.43558563156586,2.22839835801382,18.580488,800.333923,153.569351,98.882141,1189.599121,-34.724392,"CRUZINT"
72,16,49,16.44,4019.52,0.698936,-0.036597,0.695377,-0.163093,-0.97063,0.1766,-0.01252,4016.4,0.200109,-0.625624,0.311891,-0.686495,-0.96481,0.15696,-0.04937,2.11,2.74,2.88,3.1,2.99,3,2.98,3.84,3.18,3.94,3.99,3.86,3.89,3.86,3.72,2650,11.041667,60556.443667,35.450813,967.359924,-213.217758,1.78985627988811,2.43583862774003,2.22827112800499,18.604406,800.382568,153.556107,98.913635,1189.634644,-34.749123,"CRUZINT"
73,16,49,16.473,4019.54,0.699219,-0.035983,0.695339,-0.162181,-0.98101,0.17245,-0.01383,4016.42,0.200811,-0.625152,0.312521,-0.686434,-0.96627,0.16922,-0.03809,2.11,2.74,2.88,3.1,2.99,3.01,2.98,3.84,3.16,3.94,3.99,3.87,3.89,3.85,3.72,2658,11.075,60556.477,35.892014,967.253357,-213.167877,1.7883164040671,2.4366573878638,2.2281086700172,18.686314,800.403442,153.493286,98.91156,1189.668091,-34.748829,"CRUZINT"
74,16,49,16.478,4019.56,0.699602,-0.035029,0.695328,-0.160775,-0.99259,0.17081,-0.03282,4016.44,0.201652,-0.624536,0.313157,-0.686457,-0.96362,0.17425,-0.02677,2.11,2.74,2.88,3.1,2.99,3.01,2.99,3.85,3.15,3.94,3.99,3.87,3.89,3.85,3.72,2659,11.079167,60556.481167,35.937668,967.225525,-213.158813,1.7881009680768,2.43675433321635,2.22810356488471,18.691734,800.396484,153.495728,98.895844,1189.658813,-34.740776,"CRUZINT"
75,16,49,16.514,4019.58,0.699698,-0.03445,0.695478,-0.159834,-0.9834,0.17528,-0.0678,4016.46,0.20232,-0.623997,0.313584,-0.686556,-0.96031,0.17346,-0.02012,2.11,2.74,2.88,3.1,2.99,3.02,2.99,3.85,3.14,3.93,3.99,3.87,3.89,3.85,3.72,2667,11.1125,60556.5145,36.020847,966.942566,-213.052658,1.78716146061282,2.43762702448922,2.22762128507358,18.684225,800.273193,153.471817,98.729767,1189.607178,-34.693027,"CRUZINT"
76,16,49,16.519,4019.6,0.699538,-0.03417,0.69577,-0.159319,-0.95911,0.17172,-0.03249,4016.48,0.202855,-0.623537,0.313814,-0.686712,-0.96369,0.17479,-0.02447,2.11,2.74,2.88,3.1,2.99,3.02,3,3.85,3.14,3.93,3.99,3.87,3.89,3.85,3.72,2669,11.120833,60556.522833,36.06065,966.875,-213.010849,1.78686296031579,2.43791709911048,2.22745467289525,18.67485,800.256042,153.479126,98.685585,1189.598633,-34.686409,"CRUZINT"
77,16,49,16.553,4019.62,0.699462,-0.03374,0.696009,-0.158702,-0.9469,0.16867,-0.03233,4016.5,0.203494,-0.623153,0.313876,-0.686842,-0.97496,0.17139,-0.03782,2.11,2.74,2.88,3.1,2.99,3.03,3,3.85,3.13,3.93,3.99,3.87,3.89,3.85,3.72,2677,11.154167,60556.556167,36.388454,966.671509,-212.883347,1.78556150437708,2.43896054186466,2.22695220897622,18.64436,800.223694,153.539902,98.644615,1189.601563,-34.667721,"CRUZINT"
78,16,49,16.558,4019.64,0.699428,-0.033136,0.696238,-0.15797,-0.94603,0.16356,-0.03763,4016.52,0.204308,-0.622939,0.314115,-0.686685,-0.97888,0.16359,-0.0489,2.11,2.74,2.88,3.1,2.99,3.03,3.01,3.86,3.13,3.93,3.99,3.87,3.89,3.85,3.72,2678,11.158333,60556.560333,36.449963,966.661255,-212.878845,1.7853414046173,2.43906469177595,2.22694071785935,18.641994,800.224792,153.545242,98.644051,1189.613647,-34.663738,"CRUZINT"
79,16,49,16.593,4019.66,0.699494,-0.032687,0.69631,-0.157454,-0.95813,0.16309,-0.03911,4016.54,0.205382,-0.622719,0.314595,-0.686344,-0.97893,0.15276,-0.0396,2.12,2.74,2.88,3.09,2.99,3.04,3.01,3.86,3.13,3.93,3.99,3.87,3.89,3.86,3.72,2686,11.191667,60556.593667,36.931057,966.616028,-212.884613,1.78373166908,2.43976613167659,2.22691549603818,18.60141,800.254883,153.619125,98.670242,1189.717529,-34.661953,"CRUZINT"
80,16,49,16.598,4019.68,0.699517,-0.032306,0.696407,-0.157,-0.97175,0.17208,-0.03877,4016.56,0.206629,-0.622546,0.315149,-0.685873,-0.97796,0.16153,-0.02574,2.12,2.74,2.88,3.09,2.99,3.04,3.01,3.86,3.14,3.92,3.99,3.87,3.89,3.85,3.72,2688,11.2,60556.602,37.029297,966.608704,-212.879242,1.78338131192675,2.43994526563152,2.2268823886423,18.577934,800.261292,153.634964,98.667465,1189.740479,-34.667049,"CRUZINT"
81,16,49,16.654,4019.7,0.699421,-0.031997,0.696613,-0.15658,-0.97735,0.17498,-0.0361,4016.58,0.208002,-0.622332,0.31572,-0.68539,-0.97749,0.17296,-0.03125,2.11,2.74,2.88,3.09,2.99,3.04,3.01,3.86,3.13,3.93,4,3.87,3.89,3.85,3.72,2701,11.254167,60556.656167,37.471832,966.36792,-212.638565,1.78166888983124,2.44157750205392,2.22594572740553,18.421291,800.198303,153.842545,98.624527,1189.820435,-34.632725,"CRUZINT"
82,16,49,16.659,4019.72,0.699281,-0.031755,0.69684,-0.156242,-0.97388,0.1769,-0.02778,4016.6,0.209303,-0.622104,0.316105,-0.685023,-0.96252,0.1686,-0.03104,2.12,2.73,2.88,3.08,2.99,3.04,3.02,3.86,3.14,3.92,3.99,3.87,3.89,3.85,3.72,2702,11.258333,60556.660333,37.499336,966.337952,-212.614288,1.78156498228035,2.44172502957096,2.2258392802012,18.412312,800.190613,153.858978,98.622681,1189.819458,-34.632133,"CRUZINT"
83,16,49,16.674,4019.74,0.699248,-0.031015,0.697099,-0.155378,-0.97555,0.17079,-0.03172,4016.62,0.2102,-0.621964,0.316166,-0.684847,-0.95239,0.16704,-0.02872,2.12,2.72,2.88,3.07,3,3.04,3.02,3.86,3.14,3.92,3.99,3.87,3.89,3.86,3.72,2706,11.275,60556.677,37.59623,966.208069,-212.527802,1.78121725550954,2.44224236712045,2.22545881132674,18.368015,800.157166,153.937073,98.620651,1189.788452,-34.632576,"CRUZINT"
84,16,49,16.682,4019.76,0.699225,-0.030483,0.697276,-0.154792,-0.96584,0.16908,-0.03491,4016.64,0.210902,-0.6219,0.316211,-0.684668,-0.95949,0.16195,-0.02853,2.13,2.71,2.87,3.05,3,3.04,3.02,3.86,3.14,3.93,3.99,3.87,3.88,3.85,3.72,2708,11.283333,60556.685333,37.643257,966.149292,-212.48851,1.78105023885541,2.44241995409019,2.22534829936912,18.338434,800.135193,153.981293,98.620987,1189.766846,-34.615894,"CRUZINT"
85,16,49,16.713,4019.78,0.699186,-0.029833,0.69752,-0.153997,-0.96565,0.16771,-0.03285,4016.66,0.211743,-0.621813,0.316538,-0.684337,-0.97302,0.16389,-0.03516,2.14,2.69,2.87,3.03,3.01,3.04,3.02,3.87,3.14,3.93,3.99,3.87,3.89,3.85,3.73,2715,11.3125,60556.7145,37.822006,965.936157,-212.34259,1.78057719247091,2.44297814398328,2.22497872929329,18.232996,800.058777,154.149033,98.66687,1189.667114,-34.548908,"CRUZINT"
86,16,49,16.718,4019.8,0.699147,-0.029448,0.697665,-0.153591,-0.96395,0.17032,-0.02919,4016.68,0.212677,-0.621675,0.316972,-0.683971,-0.97595,0.16626,-0.04199,2.14,2.69,2.87,3.01,3.01,3.05,3.02,3.87,3.14,3.93,4,3.87,3.89,3.85,3.73,2716,11.316667,60556.718667,37.851315,965.913452,-212.32991,1.78050067895147,2.44299473044306,2.224994080857,18.21603,800.040405,154.170059,98.675789,1189.652954,-34.528355,"CRUZINT"
87,16,49,16.753,4019.82,0.699102,-0.029166,0.697795,-0.153257,-0.96706,0.17233,-0.029,4016.7,0.213192,-0.621718,0.317209,-0.683663,-0.94163,0.16291,-0.04381,2.15,2.68,2.87,2.98,3.02,3.05,3.02,3.87,3.14,3.93,4,3.87,3.89,3.85,3.73,2725,11.354167,60556.756167,38.221401,965.772522,-212.320297,1.77959030656216,2.44302142493232,2.22534989972557,18.106514,799.889343,154.337677,98.789658,1189.531738,-34.424568,"CRUZINT"
88,16,49,16.758,4019.84,0.699094,-0.029038,0.697838,-0.153123,-0.96558,0.16788,-0.02865,4016.72,0.213787,-0.621692,0.317554,-0.68334,-1.0076,0.17643,-0.04248,2.17,2.67,2.87,2.97,3.02,3.05,3.02,3.87,3.14,3.93,3.99,3.87,3.89,3.85,3.73,2726,11.358333,60556.760333,38.256527,965.765198,-212.324005,1.7794810877834,2.44297883747487,2.22543916762593,18.095129,799.88031,154.340363,98.793449,1189.515991,-34.407917,"CRUZINT"
89,16,49,16.811,4019.86,0.699151,-0.029178,0.697739,-0.153285,-0.96613,0.16584,-0.03034,4016.74,0.21448,-0.621539,0.318025,-0.683043,-0.97993,0.18012,-0.02951,2.2,2.65,2.87,2.95,3.04,3.05,3.02,3.87,3.14,3.93,3.99,3.88,3.89,3.85,3.73,2739,11.4125,60556.8145,38.466084,965.761047,-212.307083,1.77927689010079,2.44250758686489,2.22600527536108,18.108089,799.764709,154.359222,98.94558,1189.426758,-34.257011,"CRUZINT"
90,16,49,16.816,4019.88,0.699228,-0.029458,0.697569,-0.153655,-0.9635,0.16889,-0.02879,4016.76,0.214811,-0.621446,0.318326,-0.682883,-0.97564,0.17212,-0.02944,2.23,2.63,2.86,2.93,3.07,3.05,3.02,3.87,3.14,3.93,3.99,3.87,3.89,3.85,3.73,2740,11.416667,60556.818667,38.4706,965.763428,-212.305725,1.7792956178559,2.44244757451608,2.22605860860179,18.11137,799.760132,154.358627,98.955811,1189.419189,-34.242233,"CRUZINT"
91,16,49,16.833,4019.9,0.699346,-0.029985,0.697292,-0.154273,-0.9669,0.16378,-0.02565,4016.78,0.214853,-0.621452,0.318399,-0.682831,-0.97035,0.17304,-0.03261,2.27,2.6,2.85,2.91,3.08,3.05,3.02,3.87,3.14,3.93,4,3.87,3.89,3.85,3.73,2744,11.433333,60556.835333,38.497601,965.778442,-212.327332,1.77949336217528,2.44222904809628,2.22619847981964,18.150206,799.742249,154.333282,99.040886,1189.398804,-34.226894,"CRUZINT"
92,16,49,16.841,4019.92,0.699492,-0.030545,0.696965,-0.154979,-0.97086,0.16565,-0.01913,4016.8,0.214585,-0.621397,0.318439,-0.682946,-0.96746,0.17297,-0.03303,2.3,2.58,2.84,2.89,3.1,3.05,3.02,3.87,3.15,3.93,3.99,3.88,3.89,3.85,3.73,2746,11.441667,60556.843667,38.518677,965.788513,-212.353867,1.77957454889311,2.44203890330519,2.22635826901535,18.166616,799.72583,154.314606,99.086082,1189.376465,-34.213734,"CRUZINT"
93,16,49,16.873,4019.94,0.699689,-0.031019,0.696612,-0.15558,-0.97321,0.17043,-0.01929,4016.82,0.214002,-0.621455,0.318351,-0.683117,-0.97252,0.16942,-0.04117,2.32,2.57,2.83,2.87,3.12,3.05,3.01,3.87,3.15,3.92,3.99,3.88,3.89,3.85,3.73,2754,11.475,60556.877,38.655037,965.844971,-212.49025,1.77970628845113,2.44136655839059,2.22698838950222,18.217566,799.678162,154.249756,99.260574,1189.308105,-34.202801,"CRUZINT"
94,16,49,16.881,4019.96,0.699828,-0.031465,0.696343,-0.156067,-0.97025,0.17543,-0.01988,4016.84,0.213634,-0.621322,0.318492,-0.683288,-0.97567,0.16162,-0.04787,2.33,2.57,2.81,2.86,3.13,3.05,3.01,3.87,3.15,3.93,3.99,3.87,3.89,3.85,3.73,2755,11.479167,60556.881167,38.67725,965.844849,-212.508911,1.77972126778834,2.44129406077707,2.22705600420342,18.228849,799.671753,154.244415,99.286766,1189.293213,-34.206699,"CRUZINT"
95,16,49,16.938,4019.98,0.700038,-0.031642,0.696112,-0.156118,-0.97466,0.17362,-0.02173,4016.86,0.213559,-0.62095,0.318826,-0.683493,-0.96941,0.16703,-0.04042,2.33,2.56,2.78,2.86,3.13,3.05,3.01,3.87,3.15,3.93,3.99,3.88,3.89,3.85,3.72,2769,11.5375,60556.9395,38.95211,965.867126,-212.826553,1.77984861839741,2.44042464596519,2.22788873495103,18.37381,799.710022,154.263519,99.598312,1189.15271,-34.33078,"CRUZINT"
96,16,49,16.943,4020,0.700124,-0.031819,0.69603,-0.156067,-0.97156,0.16694,-0.02944,4016.88,0.213165,-0.620726,0.318949,-0.683763,-0.96809,0.17344,-0.03258,2.33,2.56,2.76,2.86,3.13,3.05,3.01,3.87,3.15,3.93,3.99,3.87,3.89,3.85,3.73,2770,11.541667,60556.943667,38.972717,965.866577,-212.856476,1.77988765196041,2.44036073027652,2.22793749231734,18.394274,799.711914,154.264832,99.630051,1189.140015,-34.349499,"CRUZINT"
97,16,49,16.948,4020.02,0.700189,-0.031939,0.695948,-0.156115,-0.96755,0.16638,-0.03238,4016.9,0.212762,-0.620445,0.318988,-0.684125,-0.96946,0.17193,-0.03906,2.33,2.56,2.74,2.87,3.13,3.05,3.01,3.87,3.15,3.93,3.99,3.88,3.89,3.85,3.73,2772,11.55,60556.952,39.023773,965.869202,-212.917862,1.77997259455933,2.44026242103899,2.22800202214892,18.413387,799.733521,154.271759,99.705101,1189.123047,-34.396801,"CRUZINT"
98,16,49,16.973,4020.04,0.70024,-0.032061,0.695868,-0.156217,-0.97042,0.16933,-0.03564,4016.92,0.212285,-0.6203,0.319027,-0.684386,-0.9694,0.16281,-0.04285,2.33,2.55,2.72,2.89,3.13,3.05,3.01,3.87,3.15,3.93,3.99,3.87,3.89,3.85,3.73,2778,11.575,60556.977,39.252235,965.896301,-213.146622,1.77985853607539,2.43992334875473,2.22839547890266,18.458569,799.788818,154.245941,99.902977,1189.093628,-34.528603,"CRUZINT"
99,16,49,16.978,4020.06,0.70028,-0.032267,0.695767,-0.156447,-0.97374,0.17369,-0.03259,4016.94,0.21194,-0.62016,0.319179,-0.684549,-0.97372,0.15913,-0.04482,2.32,2.55,2.71,2.92,3.13,3.05,3.01,3.87,3.15,3.93,3.99,3.88,3.89,3.86,3.73,2779,11.579167,60556.981167,39.301258,965.899231,-213.190155,1.7797934439467,2.43988090169325,2.22846605055764,18.459301,799.799255,154.23938,99.934937,1189.094238,-34.551262,"CRUZINT"
100,16,49,17.014,4020.08,0.700331,-0.032607,0.695622,-0.15679,-0.97124,0.17885,-0.03329,4016.96,0.211978,-0.619938,0.319353,-0.684658,-0.97485,0.16087,-0.04232,2.32,2.55,2.7,2.93,3.13,3.05,3.01,3.87,3.15,3.93,3.99,3.88,3.89,3.86,3.73,2787,11.6125,60557.0145,39.796993,965.890442,-213.461502,1.77902430742667,2.43982731738388,2.22884274879136,18.481953,799.851746,154.127136,100.208916,1189.068481,-34.74099,"CRUZINT"
101,16,49,17.019,4020.1,0.700366,-0.032875,0.695507,-0.157089,-0.97034,0.1765,-0.03381,4016.98,0.211971,-0.619757,0.319615,-0.684701,-0.97168,0.16314,-0.03735,2.32,2.55,2.69,2.94,3.13,3.05,3.01,3.87,3.15,3.93,3.99,3.88,3.89,3.86,3.73,2789,11.620833,60557.022833,39.878548,965.878174,-213.536987,1.77892849461387,2.43978852155536,2.22892231889879,18.490997,799.858032,154.096939,100.267319,1189.064575,-34.785519,"CRUZINT"
102,16,49,17.072,4020.12,0.700467,-0.032997,0.695359,-0.157268,-0.97259,0.16759,-0.03334,4017,0.212064,-0.619651,0.319613,-0.68477,-0.96828,0.1661,-0.03514,2.33,2.55,2.68,2.95,3.13,3.04,3.01,3.87,3.16,3.92,4,3.88,3.89,3.85,3.73,2801,11.670833,60557.072833,40.332767,965.751282,-213.913025,1.7785941715265,2.43990057273537,2.22894773102063,18.520035,799.899719,153.955353,100.631454,1188.979248,-35.139324,"CRUZINT"
103,16,49,17.08,4020.14,0.700556,-0.033054,0.695239,-0.157391,-0.97222,0.15841,-0.03376,4017.02,0.212038,-0.619574,0.319714,-0.6848,-0.96526,0.16752,-0.03814,2.32,2.55,2.67,2.96,3.12,3.05,3.01,3.87,3.15,3.93,3.99,3.88,3.89,3.86,3.73,2803,11.679167,60557.081167,40.412502,965.711914,-213.985168,1.77855939964325,2.43996547452291,2.22889611154194,18.521339,799.909302,153.934952,100.702141,1188.955444,-35.220745,"CRUZINT"
104,16,49,17.093,4020.16,0.700648,-0.033172,0.695137,-0.157408,-0.9703,0.15934,-0.0331,4017.04,0.212019,-0.619454,0.319792,-0.684878,-0.96383,0.16799,-0.04517,2.32,2.54,2.66,2.96,3.12,3.05,3.01,3.87,3.16,3.93,4,3.88,3.89,3.86,3.73,2806,11.691667,60557.093667,40.548264,965.644531,-214.086685,1.77842283502425,2.44008731450299,2.22882892329223,18.519197,799.933899,153.898361,100.79821,1188.908691,-35.339684,"CRUZINT"
105,16,49,17.098,4020.18,0.700718,-0.033289,0.695016,-0.157603,-0.9658,0.16734,-0.03256,4017.06,0.212177,-0.61915,0.319834,-0.685085,-0.96551,0.16947,-0.04253,2.32,2.54,2.66,2.96,3.13,3.04,3.01,3.87,3.16,3.93,3.99,3.88,3.89,3.85,3.73,2808,11.7,60557.102,40.638569,965.594177,-214.153961,1.7783601224729,2.44019926316408,2.22874100586395,18.515257,799.937805,153.875122,100.868423,1188.87146,-35.433689,"CRUZINT"
106,16,49,17.134,4020.2,0.700736,-0.033471,0.694929,-0.157868,-0.96619,0.1724,-0.03554,4017.08,0.212186,-0.61897,0.31995,-0.68519,-0.9711,0.16802,-0.0392,2.32,2.54,2.66,2.96,3.13,3.05,3.01,3.87,3.16,3.93,3.99,3.88,3.89,3.86,3.73,2816,11.733333,60557.135333,41.022003,965.420471,-214.431976,1.77791537118044,2.4405816828834,2.22853656884989,18.503254,799.98822,153.806671,101.11747,1188.743164,-35.780342,"CRUZINT"
107,16,49,17.139,4020.22,0.700777,-0.033639,0.694826,-0.158105,-0.96842,0.17208,-0.03394,4017.1,0.212482,-0.618759,0.319928,-0.685299,-0.97498,0.16249,-0.04463,2.32,2.54,2.66,2.96,3.13,3.05,3.01,3.87,3.16,3.93,4,3.88,3.89,3.85,3.73,2817,11.7375,60557.1395,41.077576,965.393677,-214.462738,1.77783508242275,2.44065972695971,2.22849044884043,18.49898,799.993591,153.800613,101.150475,1188.732544,-35.820599,"CRUZINT"
108,16,49,17.173,4020.24,0.700818,-0.033746,0.69473,-0.158323,-0.97112,0.16875,-0.03568,4017.12,0.212751,-0.618523,0.320098,-0.685349,-0.977,0.15374,-0.04599,2.32,2.54,2.66,2.96,3.13,3.05,3.01,3.87,3.16,3.93,3.99,3.88,3.89,3.86,3.73,2826,11.775,60557.177,41.638611,965.21228,-214.743454,1.77670647822723,2.44119103268388,2.22841730193391,18.498568,800.048828,153.715012,101.391861,1188.663086,-36.108772,"CRUZINT"
109,16,49,17.178,4020.26,0.700865,-0.033863,0.694613,-0.158602,-0.96981,0.16804,-0.03756,4017.14,0.213131,-0.618305,0.320227,-0.685368,-0.97829,0.15921,-0.0406,2.32,2.54,2.66,2.96,3.13,3.05,3.01,3.87,3.16,3.93,3.99,3.88,3.89,3.86,3.73,2827,11.779167,60557.181167,41.702755,965.199158,-214.776459,1.77656819951843,2.44121551499234,2.22844955215021,18.501467,800.055847,153.707825,101.416763,1188.655762,-36.133369,"CRUZINT"
110,16,49,17.212,4020.28,0.700934,-0.033974,0.694471,-0.158895,-0.96875,0.17184,-0.0387,4017.16,0.213663,-0.618072,0.320366,-0.685347,-0.9778,0.16739,-0.03997,2.32,2.54,2.66,2.96,3.13,3.05,3.01,3.87,3.16,3.93,3.99,3.88,3.89,3.85,3.73,2835,11.8125,60557.2145,42.105911,965.186951,-215.099411,1.77592234541564,2.44100915987357,2.22892633263869,18.532715,800.104065,153.603867,101.646957,1188.649048,-36.310566,"CRUZINT"
111,16,49,17.235,4020.3,0.70103,-0.034068,0.694313,-0.159139,-0.9687,0.17325,-0.03749,4017.18,0.214235,-0.617849,0.32064,-0.685241,-0.9744,0.16656,-0.04517,2.33,2.53,2.66,2.96,3.13,3.05,3.01,3.87,3.16,3.93,3.99,3.88,3.89,3.85,3.73,2840,11.833333,60557.235333,42.446106,965.162781,-215.260468,1.77526173797122,2.4410718848811,2.2291342742398,18.560099,800.132568,153.553909,101.800262,1188.644897,-36.416977,"CRUZINT"
112,16,49,17.239,4020.32,0.70111,-0.034185,0.694178,-0.159351,-0.96837,0.17128,-0.03301,4017.2,0.214867,-0.617554,0.32091,-0.685183,-0.9732,0.16663,-0.04911,2.33,2.53,2.66,2.96,3.13,3.05,3.01,3.87,3.16,3.93,3.99,3.88,3.89,3.85,3.73,2841,11.8375,60557.2395,42.526733,965.15979,-215.29538,1.77510762492834,2.44107729171444,2.22919205797569,18.562939,800.143127,153.542908,101.837494,1188.64563,-36.436363,"CRUZINT"
113,16,49,17.275,4020.34,0.701171,-0.03423,0.69408,-0.1595,-0.96824,0.16919,-0.03209,4017.22,0.215531,-0.617242,0.321368,-0.685042,-0.97219,0.16506,-0.0479,2.33,2.53,2.66,2.96,3.13,3.05,3.01,3.87,3.16,3.93,3.99,3.88,3.89,3.85,3.72,2850,11.875,60557.277,43.258099,965.13208,-215.554077,1.77358413427214,2.44111458554358,2.22977721152706,18.616785,800.19165,153.47319,102.133774,1188.629028,-36.556522,"CRUZINT"
114,16,49,17.28,4020.36,0.70119,-0.034257,0.694029,-0.159635,-0.96838,0.16886,-0.03456,4017.24,0.216184,-0.616875,0.321857,-0.684937,-0.97332,0.1593,-0.05057,2.32,2.53,2.66,2.95,3.13,3.05,3.01,3.87,3.16,3.93,3.99,3.88,3.89,3.85,3.73,2851,11.879167,60557.281167,43.351738,965.122681,-215.576538,1.7733727827647,2.44115337052937,2.22982381310348,18.625858,800.19043,153.468063,102.166801,1188.626587,-36.568493,"CRUZINT"
115,16,49,17.337,4020.38,0.701219,-0.034368,0.693954,-0.159805,-0.96861,0.17245,-0.03599,4017.26,0.216907,-0.616408,0.322241,-0.684947,-0.97232,0.15796,-0.04543,2.32,2.53,2.66,2.95,3.13,3.05,3.01,3.87,3.16,3.93,3.99,3.88,3.89,3.85,3.72,2865,11.9375,60557.3395,44.589481,965.113159,-215.90213,1.7705256047806,2.44109238722389,2.23103687579022,18.643824,800.233215,153.434097,102.589996,1188.609375,-36.610813,"CRUZINT"
116,16,49,17.342,4020.4,0.701243,-0.034463,0.693876,-0.160024,-0.96966,0.17442,-0.03561,4017.28,0.21733,-0.615989,0.322635,-0.685005,-0.96875,0.16551,-0.04072,2.32,2.53,2.66,2.95,3.13,3.05,3.01,3.87,3.16,3.93,4,3.88,3.88,3.85,3.73,2866,11.941667,60557.343667,44.690746,965.124268,-215.931168,1.77027719453543,2.44105258703706,2.23117702150934,18.64323,800.231873,153.436646,102.620224,1188.613525,-36.607059,"CRUZINT"
117,16,49,17.346,4020.42,0.701288,-0.034593,0.693787,-0.160186,-0.96659,0.1735,-0.03927,4017.3,0.217403,-0.615683,0.323009,-0.685081,-0.96901,0.1623,-0.04658,2.32,2.53,2.66,2.95,3.13,3.05,3.01,3.87,3.16,3.93,3.99,3.88,3.89,3.85,3.72,2867,11.945833,60557.347833,44.790825,965.142822,-215.96936,1.77000771131693,2.44094817607088,2.23139120003635,18.642048,800.228638,153.432312,102.642616,1188.610596,-36.597256,"CRUZINT"
118,16,49,17.391,4020.44,0.701323,-0.034696,0.693711,-0.160335,-0.96718,0.17144,-0.03892,4017.32,0.217167,-0.615344,0.323799,-0.685087,-0.97644,0.14884,-0.04698,2.32,2.54,2.66,2.95,3.13,3.05,3.01,3.87,3.16,3.93,3.99,3.88,3.88,3.86,3.73,2878,11.991667,60557.393667,46.201866,965.331543,-216.374725,1.76623006055777,2.44011942599465,2.23373180917386,18.617193,800.233032,153.48848,102.985405,1188.700684,-36.416382,"CRUZINT"
119,16,49,17.396,4020.46,0.701396,-0.034806,0.693602,-0.160462,-0.96727,0.17132,-0.03997,4017.34,0.217421,-0.614788,0.324967,-0.684952,-0.97888,0.16377,-0.04576,2.32,2.54,2.66,2.95,3.13,3.05,3.01,3.87,3.16,3.93,4,3.88,3.89,3.85,3.73,2879,11.995833,60557.397833,46.23674,965.380371,-216.49408,1.76615883915022,2.43968841197836,2.23419778095194,18.615923,800.236023,153.494308,103.01268,1188.718628,-36.387661,"CRUZINT"
120,16,49,17.414,4020.48,0.701426,-0.034949,0.693536,-0.160584,-0.968,0.17256,-0.04234,4017.36,0.217907,-0.614096,0.326562,-0.684661,-0.97374,0.17423,-0.05525,2.31,2.54,2.66,2.95,3.13,3.05,3.01,3.87,3.16,3.93,3.99,3.88,3.88,3.85,3.73,2883,12.0125,60557.4145,46.785336,965.482605,-216.710281,1.76456120340542,2.43910962766523,2.23541024042361,18.610537,800.245972,153.522644,103.117981,1188.771606,-36.276043,"CRUZINT"
121,16,49,17.419,4020.5,0.701496,-0.035086,0.693429,-0.160712,-0.96676,0.1714,-0.04152,4017.38,0.218141,-0.61321,0.328093,-0.684648,-0.97975,0.17644,-0.06278,2.31,2.54,2.66,2.95,3.13,3.05,3.01,3.87,3.16,3.93,3.99,3.88,3.88,3.85,3.73,2885,12.020833,60557.422833,47.079933,965.5401,-216.823349,1.76363404872142,2.43880776086827,2.23607680751222,18.600836,800.249878,153.548294,103.154037,1188.80249,-36.21101,"CRUZINT"
122,16,49,17.454,4020.52,0.701514,-0.035249,0.693374,-0.160835,-0.96554,0.17139,-0.04084,4017.4,0.218599,-0.611872,0.329564,-0.684993,-0.99069,0.17709,-0.07246,2.31,2.54,2.66,2.95,3.13,3.05,3.01,3.87,3.16,3.93,3.99,3.88,3.88,3.85,3.73,2893,12.054167,60557.456167,48.473595,965.843384,-217.313675,1.75891978299822,2.43744409504801,2.23926416252011,18.607801,800.244019,153.6409,103.21772,1188.947266,-35.88755,"CRUZINT"
123,16,49,17.459,4020.54,0.701518,-0.035421,0.693327,-0.160984,-0.96844,0.17186,-0.04034,4017.42,0.219711,-0.609972,0.331454,-0.685419,-0.9936,0.16539,-0.08313,2.32,2.54,2.66,2.95,3.13,3.05,3.01,3.87,3.16,3.93,4,3.88,3.88,3.85,3.73,2894,12.058333,60557.460333,48.691231,965.877625,-217.376602,1.75813210163191,2.43731873459562,2.23968821819354,18.608292,800.242615,153.657669,103.212029,1188.970825,-35.842438,"CRUZINT"
124,16,49,17.514,4020.56,0.701466,-0.035587,0.693315,-0.161224,-0.96927,0.17493,-0.03791,4017.44,0.221602,-0.607487,0.333734,-0.685911,-0.98898,0.1675,-0.08093,2.32,2.54,2.66,2.95,3.13,3.05,3.02,3.87,3.16,3.92,3.99,3.88,3.88,3.85,3.73,2907,12.1125,60557.5145,51.958542,966.58197,-218.303925,1.7463229399202,2.43494149373191,2.24639785357141,18.650124,800.177246,153.833206,103.075211,1189.207153,-35.246742,"CRUZINT"
125,16,49,17.519,4020.58,0.701471,-0.035795,0.693255,-0.161414,-0.96838,0.17233,-0.03836,4017.46,0.22405,-0.604636,0.336212,-0.686424,-0.98383,0.18834,-0.07635,2.31,2.54,2.66,2.95,3.13,3.05,3.01,3.87,3.16,3.92,3.99,3.88,3.88,3.85,3.73,2909,12.120833,60557.522833,52.500359,966.688232,-218.421234,1.74433759707008,2.43462860237544,2.24741000144147,18.659435,800.168335,153.844254,103.040848,1189.236938,-35.14695,"CRUZINT"
126,16,49,17.537,4020.6,0.701412,-0.036049,0.693242,-0.161669,-0.96746,0.17189,-0.03863,4017.48,0.22658,-0.601656,0.33869,-0.686994,-0.97206,0.20867,-0.07481,2.31,2.55,2.67,2.95,3.13,3.05,3.01,3.87,3.16,3.92,3.99,3.88,3.89,3.85,3.73,2913,12.1375,60557.5395,53.574131,966.864929,-218.634399,1.74035410830166,2.43416770512614,2.24924794740813,18.667618,800.144287,153.842819,102.96273,1189.312256,-34.952316,"CRUZINT"
127,16,49,17.542,4020.62,0.701366,-0.036292,0.693222,-0.1619,-0.96563,0.17296,-0.0369,4017.5,0.229074,-0.598437,0.34115,-0.687761,-0.98382,0.19598,-0.08201,2.31,2.55,2.67,2.95,3.13,3.05,3.01,3.87,3.16,3.92,3.99,3.88,3.88,3.85,3.72,2914,12.141667,60557.543667,53.848698,966.916504,-218.684799,1.73935681159608,2.43403456844187,2.24972101990827,18.660841,800.129395,153.841629,102.947144,1189.327515,-34.904022,"CRUZINT"
128,16,49,17.573,4020.64,0.701267,-0.036575,0.693257,-0.162119,-0.96542,0.17226,-0.03971,4017.52,0.231412,-0.595297,0.343376,-0.688595,-0.96101,0.19554,-0.08071,2.31,2.55,2.67,2.95,3.13,3.05,3.01,3.87,3.16,3.92,3.99,3.89,3.88,3.85,3.73,2922,12.175,60557.577,56.107407,967.393066,-219.135254,1.73117793375464,2.43294779443843,2.25351971449502,18.659405,800.078613,153.777176,102.820091,1189.481201,-34.586994,"CRUZINT"
129,16,49,17.578,4020.66,0.70112,-0.036827,0.693341,-0.162337,-0.96791,0.17238,-0.03444,4017.54,0.233629,-0.592132,0.345526,-0.689499,-0.97648,0.19568,-0.07837,2.31,2.55,2.67,2.95,3.13,3.05,3.01,3.87,3.16,3.92,3.99,3.88,3.88,3.85,3.73,2923,12.179167,60557.581167,56.385437,967.439331,-219.19664,1.73017792155697,2.43283737453996,2.25395223259627,18.65629,800.072937,153.771667,102.808678,1189.503296,-34.552856,"CRUZINT"
130,16,49,17.617,4020.68,0.701015,-0.037037,0.693421,-0.162403,-0.96985,0.16759,-0.03423,4017.56,0.235764,-0.588942,0.347559,-0.690483,-0.97126,0.20112,-0.08622,2.31,2.55,2.67,2.95,3.13,3.05,3.01,3.87,3.16,3.93,3.99,3.89,3.88,3.85,3.73,2932,12.216667,60557.618667,59.129711,968.036316,-219.86113,1.72055904140873,2.4310316906086,2.25875920601573,18.616383,800.013428,153.645386,102.753609,1189.658081,-34.21109,"CRUZINT"
131,16,49,17.622,4020.7,0.700939,-0.03718,0.693546,-0.162161,-0.96885,0.16214,-0.03305,4017.58,0.238136,-0.585673,0.349645,-0.691395,-0.95611,0.19332,-0.08486,2.31,2.55,2.67,2.95,3.13,3.05,3.01,3.87,3.16,3.92,3.99,3.89,3.88,3.85,3.73,2933,12.220833,60557.622833,59.458912,968.097534,-219.93399,1.71944379603702,2.43086304978952,2.2592633416031,18.608158,800.007446,153.631638,102.757568,1189.672852,-34.182076,"CRUZINT"
132,16,49,17.653,4020.72,0.700892,-0.037141,0.693649,-0.161932,-0.9691,0.16256,-0.03531,4017.6,0.240402,-0.582726,0.3517,-0.692058,-0.94455,0.1942,-0.07783,2.31,2.55,2.67,2.95,3.13,3.05,3.01,3.87,3.16,3.92,3.99,3.89,3.88,3.85,3.73,2941,12.254167,60557.656167,61.922592,968.543152,-220.610352,1.71115996573514,2.42937327284934,2.26316801308436,18.539721,799.973938,153.499054,102.819794,1189.807861,-34.000423,"CRUZINT"
133,16,49,17.658,4020.74,0.700831,-0.03705,0.693778,-0.161664,-0.96957,0.16642,-0.03432,4017.62,0.242365,-0.57986,0.353762,-0.69273,-0.93907,0.19284,-0.07284,2.3,2.55,2.67,2.95,3.13,3.05,3.01,3.87,3.16,3.92,3.99,3.88,3.88,3.85,3.73,2942,12.258333,60557.660333,62.208202,968.609741,-220.696579,1.71020853873218,2.42914058440035,2.26366955814128,18.527876,799.969788,153.480316,102.829697,1189.828369,-33.975189,"CRUZINT"
134,16,49,17.696,4020.76,0.700767,-0.03687,0.693934,-0.161314,-0.97035,0.16616,-0.03706,4017.64,0.244,-0.577212,0.35572,-0.693364,-0.95316,0.20342,-0.0731,2.3,2.55,2.67,2.95,3.13,3.05,3.02,3.87,3.16,3.92,3.99,3.89,3.88,3.85,3.73,2951,12.295833,60557.697833,64.879913,969.111755,-221.439331,1.70135373986669,2.42722569923012,2.26799667683671,18.419413,799.934692,153.395981,102.928391,1189.916992,-33.786453,"CRUZINT"
135,16,49,17.701,4020.78,0.700726,-0.036614,0.69408,-0.160924,-0.96898,0.16785,-0.03489,4017.66,0.24618,-0.574197,0.358243,-0.693798,-0.95907,0.2019,-0.08761,2.3,2.55,2.67,2.95,3.13,3.05,3.02,3.87,3.16,3.92,3.99,3.89,3.88,3.85,3.74,2952,12.3,60557.702,65.182503,969.183899,-221.524155,1.70034306608872,2.42697245060178,2.26851531032382,18.40659,799.924011,153.393005,102.935951,1189.928101,-33.765762,"CRUZINT"
136,16,49,17.734,4020.8,0.700732,-0.036282,0.694199,-0.160454,-0.96885,0.16739,-0.03599,4017.68,0.248607,-0.571195,0.360866,-0.694051,-0.96551,0.18958,-0.09394,2.3,2.55,2.67,2.95,3.13,3.05,3.02,3.87,3.16,3.92,3.99,3.89,3.88,3.85,3.73,2960,12.333333,60557.735333,67.499397,969.589111,-222.06488,1.69232393194205,2.42540074277147,2.27211693575366,18.326422,799.867065,153.43129,102.916893,1189.964478,-33.55891,"CRUZINT"
137,16,49,17.739,4020.82,0.700737,-0.035904,0.694314,-0.160021,-0.9688,0.16732,-0.03824,4017.7,0.250946,-0.568146,0.363313,-0.694435,-0.9581,0.20267,-0.10357,2.3,2.55,2.67,2.95,3.13,3.05,3.02,3.87,3.16,3.92,3.98,3.89,3.88,3.85,3.74,2961,12.3375,60557.7395,67.793053,969.644775,-222.117783,1.69128984463086,2.42525725542867,2.27251244087358,18.319424,799.860291,153.43457,102.907814,1189.974854,-33.538754,"CRUZINT"
138,16,49,17.772,4020.84,0.700763,-0.035575,0.694387,-0.159667,-0.96973,0.17201,-0.03939,4017.72,0.253062,-0.565036,0.365552,-0.695029,-0.97864,0.21938,-0.107,2.3,2.55,2.67,2.95,3.13,3.05,3.01,3.87,3.16,3.92,3.98,3.89,3.88,3.85,3.74,2969,12.370833,60557.772833,69.948547,970.164368,-222.485474,1.68370945866584,2.42358979865571,2.27596394004545,18.263781,799.804626,153.533188,102.843918,1190.040649,-33.252518,"CRUZINT"
139,16,49,17.793,4020.86,0.700749,-0.035241,0.694476,-0.159411,-0.96612,0.17754,-0.04004,4017.74,0.255071,-0.561821,0.367674,-0.695781,-0.96443,0.22334,-0.10388,2.3,2.55,2.67,2.95,3.14,3.05,3.01,3.87,3.16,3.92,3.98,3.89,3.88,3.85,3.74,2974,12.391667,60557.793667,71.268379,970.550049,-222.671982,1.67908836591183,2.42237058628833,2.27821428907607,18.23431,799.767578,153.614288,102.809807,1190.101196,-33.017632,"CRUZINT"
140,16,49,17.802,4020.88,0.700728,-0.035012,0.694582,-0.159095,-0.96387,0.1774,-0.03735,4017.76,0.257055,-0.558674,0.369762,-0.696478,-0.95991,0.22232,-0.11257,2.3,2.55,2.67,2.95,3.13,3.05,3.02,3.87,3.16,3.92,3.98,3.89,3.88,3.85,3.74,2976,12.4,60557.802,71.822762,970.720215,-222.754761,1.67709318988907,2.42181567754566,2.27920107545998,18.227289,799.749817,153.651672,102.780342,1190.129639,-32.911915,"CRUZINT"
141,16,49,17.838,4020.9,0.700673,-0.03479,0.694712,-0.158818,-0.9665,0.17453,-0.03585,4017.78,0.258983,-0.555716,0.371799,-0.697046,-0.95053,0.20175,-0.10184,2.3,2.55,2.67,2.95,3.13,3.05,3.02,3.87,3.16,3.92,3.98,3.88,3.88,3.85,3.74,2985,12.4375,60557.8395,73.96357,971.409912,-222.987366,1.66943266815891,2.41978473571533,2.28281478762756,18.199425,799.683533,153.781479,102.682686,1190.314209,-32.444275,"CRUZINT"
142,16,49,17.843,4020.92,0.70062,-0.034695,0.694809,-0.158645,-0.96929,0.17181,-0.03484,4017.8,0.260977,-0.5529,0.373773,-0.697486,-0.94913,0.2083,-0.09773,2.3,2.55,2.67,2.95,3.14,3.05,3.02,3.87,3.16,3.92,3.98,3.89,3.88,3.85,3.74,2986,12.441667,60557.843667,74.194946,971.494385,-223.006409,1.66866254717142,2.41955128683663,2.28320084496571,18.192822,799.678162,153.792953,102.687477,1190.330078,-32.398666,"CRUZINT"
143,16,49,17.874,4020.94,0.700535,-0.034714,0.694907,-0.158585,-0.96919,0.17351,-0.03357,4017.82,0.262809,-0.550396,0.375508,-0.697846,-0.94739,0.23031,-0.10226,2.3,2.55,2.67,2.95,3.14,3.05,3.01,3.87,3.16,3.92,3.98,3.89,3.88,3.85,3.74,2994,12.475,60557.877,75.80365,972.067322,-223.078995,1.66309096365086,2.41801091726969,2.28580904606885,18.15637,799.650452,153.84906,102.664024,1190.485474,-32.001656,"CRUZINT"
144,16,49,17.879,4020.96,0.700384,-0.034697,0.695062,-0.158578,-0.96725,0.17292,-0.03196,4017.84,0.264317,-0.547992,0.377105,-0.698307,-0.95326,0.23441,-0.11904,2.3,2.55,2.67,2.95,3.14,3.06,3.01,3.87,3.16,3.92,3.98,3.89,3.88,3.85,3.73,2995,12.479167,60557.881167,75.991455,972.154907,-223.088806,1.66247619234711,2.41776047472335,2.28617363793063,18.154999,799.644531,153.851929,102.670708,1190.502563,-31.950649,"CRUZINT"
145,16,49,17.917,4020.98,0.700309,-0.034745,0.695154,-0.158496,-0.9683,0.16929,-0.03265,4017.86,0.265411,-0.545699,0.37848,-0.698944,-0.97478,0.2447,-0.12265,2.3,2.55,2.67,2.95,3.14,3.06,3.01,3.87,3.17,3.92,3.98,3.89,3.88,3.85,3.74,3004,12.516667,60557.918667,77.546272,973.011108,-223.194168,1.65709731693425,2.41544545529275,2.28945470768852,18.134722,799.631226,153.908203,102.645554,1190.749146,-31.478163,"CRUZINT"
146,16,49,17.922,4021,0.700204,-0.034864,0.6953,-0.158295,-0.97055,0.16506,-0.02729,4017.88,0.266525,-0.543155,0.379871,-0.699747,-0.95747,0.24458,-0.12769,2.3,2.55,2.67,2.95,3.14,3.05,3.01,3.87,3.16,3.92,3.98,3.89,3.88,3.85,3.74,3005,12.520833,60557.922833,77.719604,973.111328,-223.204025,1.65647138604656,2.41519941796934,2.28980927922337,18.133703,799.636292,153.92218,102.635597,1190.786987,-31.423357,"CRUZINT"
147,16,49,17.954,4021.02,0.700158,-0.034916,0.695372,-0.158169,-0.97241,0.16408,-0.02823,4017.9,0.268065,-0.54045,0.381352,-0.700446,-0.96102,0.23532,-0.14212,2.3,2.55,2.67,2.95,3.14,3.06,3.01,3.87,3.16,3.93,3.98,3.89,3.88,3.85,3.74,3013,12.554167,60557.956167,79.236496,973.942627,-223.335175,1.65090327225233,2.41299071423576,2.29294839775734,18.12196,799.629272,153.985291,102.52002,1191.034546,-31.005943,"CRUZINT"
148,16,49,17.959,4021.04,0.700111,-0.035012,0.695431,-0.158094,-0.97182,0.16563,-0.02848,4017.92,0.270006,-0.537738,0.383051,-0.700861,-0.924,0.21723,-0.14443,2.3,2.55,2.67,2.95,3.14,3.06,3.01,3.87,3.17,3.93,3.98,3.89,3.88,3.85,3.74,3014,12.558333,60557.960333,79.421021,974.028564,-223.356827,1.65018490130096,2.41270788859334,2.29334666346649,18.120552,799.624573,153.996063,102.49472,1191.05188,-30.95289,"CRUZINT"
149,16,49,18.01,4021.06,0.700032,-0.035177,0.695501,-0.158106,-0.96987,0.16868,-0.03142,4017.94,0.272257,-0.535035,0.384883,-0.701055,-0.94653,0.21193,-0.14336,2.3,2.55,2.67,2.95,3.14,3.06,3.01,3.87,3.17,3.93,3.98,3.89,3.88,3.85,3.74,3026,12.608333,60558.010333,81.917747,974.981384,-223.505447,1.64087264522623,2.41048106722865,2.29697348246932,18.035114,799.576843,154.058456,102.263123,1191.290771,-30.56266,"CRUZINT"
150,16,49,18.015,4021.08,0.699999,-0.035374,0.695508,-0.158171,-0.97002,0.17004,-0.02958,4017.96,0.274598,-0.532312,0.386724,-0.701203,-0.93445,0.23167,-0.15508,2.3,2.55,2.67,2.95,3.14,3.06,3.01,3.87,3.17,3.94,3.98,3.89,3.88,3.85,3.74,3028,12.616667,60558.018667,82.343292,975.152161,-223.492538,1.63944368273352,2.41023454384981,2.29741925619097,18.010216,799.571228,154.064835,102.263123,1191.290771,-30.56266,"CRUZINT"
151,16,49,18.034,4021.1,0.699931,-0.035593,0.69554,-0.158288,-0.9699,0.16942,-0.03233,4017.98,0.277082,-0.529312,0.388541,-0.701491,-0.96699,0.23882,-0.16631,2.3,2.55,2.67,2.95,3.14,3.05,3.01,3.88,3.17,3.94,3.98,3.89,3.88,3.85,3.74,3032,12.633333,60558.035333,83.245987,975.450012,-223.474548,1.63565664650897,2.40961292847522,2.29854903047718,17.971724,799.557556,154.086273,102.065742,1191.436401,-30.327841,"CRUZINT"
152,16,49,18.039,4021.12,0.699865,-0.035802,0.695569,-0.158402,-0.96856,0.16896,-0.03217,4018,0.279786,-0.526225,0.390102,-0.701874,-0.93724,0.24667,-0.17228,2.3,2.55,2.67,2.95,3.14,3.05,3.01,3.87,3.18,3.94,3.98,3.89,3.88,3.85,3.74,3033,12.6375,60558.0395,83.457291,975.51239,-223.457916,1.63487492223191,2.40955492332635,2.29870827512671,17.973392,799.543762,154.081375,102.048225,1191.460693,-30.300684,"CRUZINT"
153,16,49,18.098,4021.14,0.69979,-0.035997,0.695618,-0.158473,-0.96673,0.1642,-0.03256,4018.02,0.282507,-0.523061,0.391455,-0.702396,-0.95124,0.24623,-0.17636,2.3,2.55,2.67,2.95,3.14,3.05,3.01,3.87,3.18,3.94,3.98,3.89,3.88,3.85,3.74,3048,12.7,60558.102,87.228607,976.529053,-223.133209,1.61965081477229,2.40864341490138,2.30134690638376,17.806879,799.455505,154.158768,101.36927,1191.731079,-29.915884,"CRUZINT"
154,16,49,18.103,4021.16,0.699695,-0.03624,0.69569,-0.158523,-0.96802,0.16105,-0.03165,4018.04,0.285353,-0.519797,0.392679,-0.702986,-0.95272,0.23737,-0.19798,2.31,2.55,2.67,2.95,3.14,3.05,3,3.87,3.18,3.94,3.99,3.89,3.88,3.85,3.74,3049,12.704167,60558.106167,87.545525,976.609436,-223.076538,1.61841228121958,2.40865300956553,2.30145732340273,17.798754,799.452881,154.166824,101.323639,1191.745605,-29.896206,"CRUZINT"
155,16,49,18.107,4021.18,0.69961,-0.036422,0.695721,-0.158718,-0.97072,0.16394,-0.03116,4018.06,0.288964,-0.515594,0.394151,-0.703781,-0.9696,0.22852,-0.2139,2.31,2.55,2.67,2.95,3.14,3.05,3,3.87,3.18,3.94,3.98,3.89,3.88,3.85,3.74,3050,12.708333,60558.110333,88.257843,976.703247,-222.856583,1.61580937746873,2.4091367367881,2.30121558661847,17.782799,799.446106,154.17186,101.273239,1191.766724,-29.877638,"CRUZINT"
156,16,49,18.157,4021.2,0.699489,-0.036589,0.695783,-0.158943,-0.97069,0.16928,-0.03219,4018.08,0.293469,-0.510642,0.396002,-0.704488,-0.97152,0.22273,-0.22604,2.31,2.55,2.67,2.95,3.14,3.05,3,3.87,3.18,3.94,3.98,3.89,3.88,3.85,3.74,3062,12.758333,60558.160333,93.01329,977.636658,-222.263977,1.59705714032867,2.40937242214429,2.30232311690183,17.626656,799.354614,154.266632,100.581345,1191.984497,-29.730274,"CRUZINT"
157,16,49,18.162,4021.22,0.699354,-0.036754,0.695872,-0.159112,-0.96797,0.1698,-0.03024,4018.1,0.298885,-0.505286,0.398025,-0.704933,-0.94711,0.22226,-0.22895,2.31,2.55,2.67,2.95,3.14,3.05,3,3.87,3.18,3.94,3.98,3.89,3.88,3.85,3.74,3063,12.7625,60558.1645,93.463615,977.709167,-222.222488,1.59525388486259,2.40937688604552,2.30241060363284,17.611824,799.339722,154.275818,100.510262,1192.001953,-29.720249,"CRUZINT"
158,16,49,18.167,4021.24,0.699195,-0.036911,0.695987,-0.159268,-0.96742,0.16718,-0.03071,4018.12,0.304718,-0.499758,0.400271,-0.705105,-0.92665,0.23882,-0.23223,2.31,2.55,2.67,2.95,3.14,3.05,3,3.87,3.18,3.95,3.98,3.89,3.88,3.85,3.74,3064,12.766667,60558.168667,93.908112,977.805969,-222.178192,1.59348888194427,2.40936661761752,2.30250454527419,17.596153,799.328613,154.278931,100.443909,1192.0177,-29.726856,"CRUZINT"
159,16,49,18.214,4021.26,0.699013,-0.037105,0.696113,-0.159472,-0.96837,0.16596,-0.03062,4018.14,0.310684,-0.493815,0.402596,-0.705364,-0.95258,0.25401,-0.23251,2.31,2.55,2.67,2.95,3.14,3.05,3,3.87,3.18,3.94,3.98,3.89,3.88,3.85,3.74,3075,12.8125,60558.2145,98.938187,978.893005,-221.505981,1.57366343301872,2.40905644014734,2.30332427379834,17.345873,799.242615,154.30043,99.760529,1192.138062,-29.694809,"CRUZINT"
160,16,49,18.219,4021.28,0.698826,-0.037323,0.696221,-0.159767,-0.97025,0.16659,-0.03088,4018.16,0.316661,-0.487571,0.40481,-0.705783,-0.94531,0.25633,-0.22881,2.31,2.55,2.67,2.95,3.14,3.04,3,3.87,3.18,3.95,3.98,3.89,3.87,3.85,3.74,3077,12.820833,60558.222833,99.866638,979.129211,-221.413925,1.57002042084191,2.40879740485578,2.30359097015179,17.298193,799.225647,154.304459,99.644264,1192.160522,-29.693529,"CRUZINT"
161,16,49,18.235,4021.3,0.698633,-0.03754,0.696329,-0.16009,-0.96831,0.17004,-0.02774,4018.18,0.322783,-0.481272,0.407037,-0.706052,-0.9342,0.25841,-0.22151,2.31,2.55,2.67,2.95,3.14,3.05,3,3.87,3.18,3.95,3.98,3.89,3.87,3.85,3.74,3080,12.833333,60558.235333,101.251968,979.512024,-221.277328,1.56467325613469,2.40833882557849,2.30401245832233,17.234001,799.196289,154.287186,99.499229,1192.198486,-29.69857,"CRUZINT"
162,16,49,18.24,4021.32,0.698461,-0.037734,0.696421,-0.160391,-0.96648,0.16696,-0.03252,4018.2,0.328626,-0.475372,0.409196,-0.706106,-0.91239,0.2632,-0.20049,2.31,2.55,2.67,2.95,3.14,3.04,3,3.87,3.18,3.94,3.98,3.89,3.87,3.85,3.74,3082,12.841667,60558.243667,102.149742,979.737305,-221.173218,1.56124675464851,2.40811499067525,2.30418230340092,17.188013,799.180359,154.282913,99.418259,1192.219604,-29.703663,"CRUZINT"
163,16,49,18.275,4021.34,0.698255,-0.037957,0.696542,-0.16071,-0.96926,0.16342,-0.02809,4018.22,0.334058,-0.469953,0.41159,-0.705793,-0.92695,0.27625,-0.19383,2.31,2.55,2.67,2.95,3.14,3.05,3,3.87,3.18,3.94,3.98,3.89,3.88,3.85,3.74,3090,12.875,60558.277,105.634773,980.847168,-220.915497,1.54817817066257,2.40634238924181,2.30553248725209,17.034697,799.104858,154.223312,99.186104,1192.320923,-29.763712,"CRUZINT"
164,16,49,18.28,4021.36,0.698045,-0.038117,0.696693,-0.160934,-0.97032,0.16352,-0.02886,4018.24,0.339774,-0.464639,0.414113,-0.705107,-0.94577,0.26571,-0.22365,2.31,2.55,2.67,2.95,3.14,3.04,3,3.87,3.18,3.95,3.98,3.89,3.87,3.85,3.74,3091,12.879167,60558.281167,106.072998,981.00531,-220.862213,1.54655427506966,2.40612849953416,2.30566994152376,17.010685,799.101868,154.207825,99.165024,1192.328125,-29.780836,"CRUZINT"
165,16,49,18.331,4021.38,0.697849,-0.03819,0.696837,-0.161141,-0.97096,0.16689,-0.02881,4018.26,0.345203,-0.458706,0.417023,-0.704638,-0.96797,0.26937,-0.26179,2.31,2.55,2.67,2.94,3.14,3.05,3,3.87,3.18,3.95,3.98,3.89,3.87,3.85,3.74,3103,12.929167,60558.331167,113.474953,984.422791,-221.441666,1.51936109631842,2.39608168941988,2.3136550323187,16.776556,799.072449,154.079651,98.91272,1192.532959,-29.857344,"CRUZINT"
166,16,49,18.336,4021.4,0.697515,-0.038196,0.697138,-0.161283,-0.968,0.17116,-0.02326,4018.28,0.351203,-0.45206,0.420423,-0.703948,-0.94751,0.26787,-0.28489,2.31,2.55,2.68,2.95,3.14,3.05,3,3.87,3.18,3.95,3.98,3.89,3.88,3.85,3.74,3105,12.9375,60558.3395,112.99987,984.122375,-220.469101,1.5207307704528,2.39950453564028,2.31036999375158,16.74226,799.060791,154.06897,98.846741,1192.570068,-29.862747,"CRUZINT"
167,16,49,18.354,4021.42,0.697393,-0.038092,0.69727,-0.161269,-0.96814,0.16966,-0.02232,4018.3,0.357204,-0.444531,0.424381,-0.703348,-0.93764,0.28155,-0.30823,2.31,2.56,2.67,2.95,3.14,3.05,3,3.87,3.18,3.95,3.98,3.89,3.88,3.85,3.74,3109,12.954167,60558.356167,116.674583,986.052734,-221.263718,1.50721637043769,2.39213264521774,2.31620769358991,16.685959,799.044495,154.064056,98.743347,1192.651367,-29.843458,"CRUZINT"
168,16,49,18.359,4021.44,0.697285,-0.037941,0.697399,-0.161207,-0.97241,0.16631,-0.02141,4018.32,0.36343,-0.436752,0.428735,-0.702391,-0.90571,0.28739,-0.31187,2.31,2.56,2.68,2.95,3.14,3.05,3,3.87,3.18,3.94,3.99,3.89,3.88,3.85,3.73,3110,12.958333,60558.360333,117.282814,986.327576,-221.226059,1.50491844735295,2.39144940899278,2.31659376746605,16.668762,799.043457,154.064819,98.715782,1192.668579,-29.842825,"CRUZINT"
169,16,49,18.412,4021.46,0.69719,-0.037862,0.697516,-0.161133,-0.97241,0.16596,-0.02438,4018.34,0.369055,-0.428143,0.433521,-0.70182,-0.93236,0.31179,-0.33229,2.31,2.56,2.68,2.95,3.14,3.05,3,3.87,3.18,3.95,3.99,3.89,3.88,3.85,3.73,3123,13.0125,60558.4145,127.035065,992.547852,-221.906708,1.46795082438146,2.37176792063355,2.33007173765329,16.447062,798.969971,154.099823,98.370529,1193.027222,-29.702072,"CRUZINT"
170,16,49,18.417,4021.48,0.697106,-0.037782,0.697595,-0.161176,-0.97131,0.17337,-0.02483,4018.36,0.374732,-0.418717,0.438736,-0.701258,-0.93583,0.2964,-0.33618,2.31,2.56,2.68,2.94,3.14,3.05,3,3.87,3.18,3.94,3.99,3.89,3.88,3.85,3.73,3124,13.016667,60558.418667,126.316864,991.337402,-220.777557,1.47045424142208,2.37795877827966,2.3243808251591,16.43524,798.96167,154.100235,98.34182,1193.05835,-29.688417,"CRUZINT"
171,16,49,18.437,4021.5,0.696955,-0.037683,0.697692,-0.161426,-0.96713,0.17773,-0.02471,4018.38,0.380435,-0.408466,0.443917,-0.700972,-0.93413,0.36588,-0.34251,2.31,2.56,2.68,2.95,3.14,3.05,3,3.87,3.18,3.94,3.99,3.89,3.88,3.85,3.73,3129,13.0375,60558.4395,130.967316,994.789795,-221.739273,1.45276952487618,2.36523022943627,2.33328546679923,16.356314,798.959534,154.11557,98.216171,1193.229492,-29.625334,"CRUZINT"
172,16,49,18.442,4021.52,0.696818,-0.037715,0.697791,-0.161589,-0.96437,0.1754,-0.02598,4018.4,0.385281,-0.397675,0.448791,-0.701427,-0.90268,0.35371,-0.3369,2.3,2.57,2.68,2.95,3.14,3.05,3,3.87,3.18,3.94,3.99,3.89,3.87,3.85,3.73,3130,13.041667,60558.443667,131.183258,994.065918,-220.927536,1.45193011286737,2.36903764380167,2.32927699112542,16.336319,798.958679,154.114716,98.197586,1193.262451,-29.605717,"CRUZINT"
173,16,49,18.494,4021.54,0.696655,-0.037746,0.697917,-0.161737,-0.96676,0.17247,-0.02762,4018.42,0.389846,-0.386437,0.453608,-0.702087,-0.90397,0.3837,-0.33461,2.3,2.57,2.68,2.95,3.14,3.05,3,3.87,3.18,3.94,3.99,3.9,3.87,3.85,3.73,3143,13.095833,60558.497833,141.130142,1000.504639,-220.733322,1.41391003315105,2.34884458677627,2.33912878328886,16.167629,798.909729,154.063614,98.110138,1193.762817,-29.3897,"CRUZINT"
174,16,49,18.499,4021.56,0.696398,-0.037847,0.698115,-0.161965,-0.9713,0.16992,-0.0257,4018.44,0.393626,-0.37468,0.458626,-0.70309,-0.89709,0.37748,-0.34372,2.29,2.57,2.68,2.95,3.14,3.05,3,3.87,3.18,3.94,3.99,3.9,3.87,3.85,3.72,3144,13.1,60558.502,141.393982,1000.608704,-220.446808,1.41286229848243,2.34919170381916,2.33845686865917,16.159126,798.898804,154.052719,98.118568,1193.803223,-29.366543,"CRUZINT"
175,16,49,18.516,4021.58,0.696099,-0.038006,0.698335,-0.162269,-0.97069,0.17177,-0.02187,4018.46,0.397669,-0.362391,0.464007,-0.703725,-0.86959,0.3787,-0.34024,2.29,2.57,2.68,2.95,3.14,3.05,3,3.87,3.18,3.94,3.99,3.9,3.87,3.84,3.72,3148,13.116667,60558.518667,144.626495,1003.055542,-220.445663,1.40046060216171,2.34119558621719,2.34245468228735,16.111444,798.890198,154.002792,98.157616,1193.966553,-29.287107,"CRUZINT"
176,16,49,18.52,4021.6,0.695806,-0.038172,0.698549,-0.162561,-0.97013,0.17348,-0.02061,4018.48,0.400679,-0.349936,0.469477,-0.704693,-0.88572,0.40411,-0.34731,2.29,2.57,2.68,2.94,3.14,3.05,3,3.87,3.18,3.94,3.99,3.89,3.86,3.84,3.72,3149,13.120833,60558.522833,145.456161,1003.704163,-220.446442,1.39729577559724,2.33905473334362,2.34352793700104,16.09856,798.892151,153.983856,98.177673,1194.011719,-29.259815,"CRUZINT"
177,16,49,18.554,4021.62,0.695481,-0.038361,0.698799,-0.162833,-0.96802,0.17222,-0.02072,4018.5,0.403169,-0.337269,0.474871,-0.705834,-0.87012,0.4067,-0.34774,2.29,2.57,2.68,2.95,3.14,3.05,3,3.87,3.18,3.94,3.99,3.9,3.86,3.84,3.72,3157,13.154167,60558.556167,152.301376,1009.323364,-220.760132,1.3710296263349,2.31957401544555,2.3534035170629,16.005919,798.914185,153.814667,98.344261,1194.421387,-29.031254,"CRUZINT"
178,16,49,18.559,4021.64,0.695192,-0.038517,0.699037,-0.163008,-0.96758,0.17024,-0.01376,4018.52,0.40595,-0.324379,0.480468,-0.706494,-0.84998,0.38374,-0.33915,2.29,2.57,2.68,2.95,3.14,3.05,3,3.87,3.18,3.94,3.99,3.9,3.86,3.84,3.72,3158,13.158333,60558.560333,152.731583,1009.702087,-220.524277,1.3693546482983,2.31895409675502,2.35336761433214,15.997492,798.914551,153.788116,98.383804,1194.487427,-28.998396,"CRUZINT"
179,16,49,18.593,4021.66,0.694888,-0.038627,0.699315,-0.163086,-0.96905,0.16816,-0.01894,4018.54,0.40821,-0.311797,0.486089,-0.707011,-0.84912,0.44739,-0.35303,2.29,2.57,2.68,2.94,3.14,3.05,3,3.87,3.18,3.94,3.99,3.9,3.86,3.84,3.71,3166,13.191667,60558.593667,159.07103,1015.449768,-220.433762,1.34493794360281,2.29983752045973,2.36228187632377,15.898175,798.968384,153.561447,98.708038,1195.009277,-28.679111,"CRUZINT"
180,16,49,18.598,4021.68,0.694596,-0.038749,0.699571,-0.163204,-0.97234,0.16936,-0.01385,4018.56,0.410062,-0.29946,0.491356,-0.707631,-0.83716,0.44327,-0.35617,2.28,2.57,2.69,2.94,3.14,3.05,3,3.87,3.18,3.94,3.99,3.9,3.85,3.84,3.71,3168,13.2,60558.602,160.607986,1016.8797,-220.413727,1.33905184875127,2.29505497220842,2.36443119897998,15.862207,798.991272,153.503448,98.81546,1195.141968,-28.611464,"CRUZINT"
181,16,49,18.661,4021.7,0.694248,-0.038827,0.699915,-0.163189,-0.97355,0.16971,-0.01357,4018.58,0.411598,-0.287712,0.496095,-0.708307,-0.81142,0.42268,-0.35496,2.28,2.57,2.69,2.94,3.14,3.05,3,3.87,3.18,3.94,3.99,3.9,3.85,3.84,3.71,3183,13.2625,60558.6645,171.43602,1027.89624,-219.606964,1.29670094873462,2.25901423907639,2.37950689188408,15.712131,799.219727,153.081436,99.698189,1196.234375,-27.883535,"CRUZINT"
182,16,49,18.666,4021.72,0.694055,-0.038873,0.700112,-0.163159,-0.97128,0.16945,-0.01583,4018.6,0.413478,-0.276181,0.500779,-0.708506,-0.8098,0.47491,-0.34963,2.28,2.57,2.69,2.94,3.14,3.05,3,3.87,3.18,3.94,3.99,3.9,3.85,3.84,3.71,3184,13.266667,60558.668667,172.344788,1028.75647,-219.755295,1.29326192564565,2.25554739116078,2.38110566878488,15.704069,799.240051,153.059326,99.756027,1196.32373,-27.808496,"CRUZINT"
183,16,49,18.671,4021.74,0.69388,-0.038904,0.700304,-0.163071,-0.97065,0.17123,-0.01432,4018.62,0.414792,-0.264918,0.505278,-0.708844,-0.77551,0.46266,-0.35706,2.28,2.57,2.69,2.94,3.14,3.05,3,3.87,3.18,3.94,3.99,3.9,3.85,3.83,3.71,3185,13.270833,60558.672833,172.99939,1029.469482,-219.668625,1.29072851353516,2.25324854382521,2.38201764676869,15.70438,799.255737,153.037354,99.83168,1196.413208,-27.729361,"CRUZINT"
184,16,49,18.714,4021.76,0.693706,-0.0389,0.700497,-0.162983,-0.97217,0.17297,-0.01552,4018.64,0.41642,-0.254158,0.509658,-0.708694,-0.76711,0.45858,-0.36333,2.28,2.57,2.69,2.94,3.14,3.05,3,3.87,3.18,3.94,3.99,3.9,3.84,3.84,3.71,3195,13.3125,60558.7145,180.049606,1038.334961,-219.243835,1.26182356350528,2.22292516713412,2.39546703505152,15.691025,799.442505,152.847885,100.475426,1197.148193,-27.079882,"CRUZINT"
185,16,49,18.719,4021.78,0.693576,-0.038952,0.700638,-0.162916,-0.97191,0.17194,-0.01435,4018.66,0.417561,-0.243289,0.514161,-0.708584,-0.7704,0.48511,-0.36094,2.28,2.57,2.69,2.94,3.14,3.05,3,3.87,3.18,3.94,3.99,3.9,3.84,3.84,3.71,3197,13.320833,60558.722833,181.348984,1039.876343,-219.003708,1.25643307815525,2.21783069620513,2.39723372174492,15.685746,799.491211,152.822662,100.603264,1197.294312,-26.933289,"CRUZINT"
186,16,49,18.737,4021.8,0.693417,-0.039066,0.700781,-0.162952,-0.96889,0.1743,-0.01433,4018.68,0.418776,-0.232501,0.518661,-0.70821,-0.74843,0.48853,-0.35046,2.28,2.57,2.69,2.94,3.14,3.04,3,3.86,3.18,3.94,3.98,3.9,3.84,3.83,3.71,3201,13.3375,60558.7395,183.491562,1042.477173,-218.441849,1.24768055059979,2.2096279958096,2.39990601751431,15.683588,799.572266,152.775269,100.891777,1197.58667,-26.634047,"CRUZINT"
187,16,49,18.743,4021.82,0.693322,-0.039252,0.700855,-0.162992,-0.96903,0.17812,-0.01498,4018.7,0.419753,-0.221935,0.523226,-0.707663,-0.73183,0.49672,-0.34633,2.28,2.57,2.69,2.94,3.14,3.04,2.99,3.86,3.18,3.94,3.99,3.9,3.84,3.83,3.71,3202,13.341667,60558.743667,184.336563,1043.457764,-218.368149,1.24418676298016,2.20617762093197,2.40109679251656,15.68838,799.593323,152.764221,100.972031,1197.667114,-26.573429,"CRUZINT"
188,16,49,18.773,4021.84,0.693238,-0.039533,0.7009,-0.163085,-0.9707,0.1765,-0.01547,4018.72,0.420844,-0.211818,0.527632,-0.706844,-0.72297,0.55542,-0.34966,2.28,2.57,2.69,2.94,3.14,3.04,2.99,3.86,3.18,3.94,3.98,3.9,3.84,3.83,3.71,3210,13.375,60558.777,188.851196,1049.10022,-217.308426,1.22491166672917,2.18758751329658,2.40676959491747,15.704612,799.760925,152.680862,101.433334,1198.244629,-25.998493,"CRUZINT"
189,16,49,18.778,4021.86,0.69314,-0.03981,0.700961,-0.163177,-0.97025,0.17414,-0.01393,4018.74,0.421329,-0.202033,0.53189,-0.706228,-0.71127,0.54053,-0.34595,2.28,2.57,2.69,2.94,3.14,3.04,2.99,3.86,3.18,3.94,3.99,3.9,3.84,3.83,3.7,3211,13.379167,60558.781167,189.39035,1049.776733,-217.173553,1.2226228466605,2.18535933894912,2.40740987400596,15.718704,799.780518,152.668289,101.501915,1198.309448,-25.936644,"CRUZINT"
190,16,49,18.837,4021.88,0.693128,-0.040181,0.700922,-0.163301,-0.97048,0.17672,-0.0169,4018.76,0.422019,-0.1928,0.535666,-0.705542,-0.70829,0.5483,-0.33135,2.28,2.57,2.69,2.94,3.14,3.04,2.99,3.86,3.18,3.93,3.98,3.9,3.83,3.83,3.7,3225,13.4375,60558.8395,191.674347,1052.811035,-217.272263,1.21659335479149,2.17497061701274,2.41330055437478,15.770726,800.096802,152.513962,102.32618,1199.151489,-25.019148,"CRUZINT"
191,16,49,18.842,4021.9,0.693027,-0.040594,0.700931,-0.163589,-0.97276,0.17392,-0.0158,4018.78,0.422305,-0.184198,0.539227,-0.704957,-0.68928,0.56367,-0.3325,2.28,2.57,2.69,2.94,3.14,3.04,2.99,3.86,3.18,3.93,3.98,3.91,3.83,3.83,3.7,3226,13.441667,60558.843667,191.674347,1052.811035,-217.272263,1.21691191689588,2.17506130691437,2.41342374494848,15.776556,800.119629,152.509338,102.385544,1199.199585,-24.9601,"CRUZINT"
192,16,49,18.847,4021.92,0.692989,-0.041008,0.700878,-0.163877,-0.96976,0.17463,-0.01371,4018.8,0.422725,-0.175766,0.542604,-0.704266,-0.68354,0.57305,-0.34914,2.28,2.57,2.69,2.94,3.14,3.03,2.99,3.86,3.19,3.94,3.98,3.9,3.83,3.83,3.7,3227,13.445833,60558.847833,191.674347,1052.811035,-217.272263,1.21719809898825,2.17514604032116,2.41353120923171,15.778084,800.139832,152.490448,102.434196,1199.251221,-24.897442,"CRUZINT"
193,16,49,18.892,4021.94,0.692945,-0.041398,0.700853,-0.164069,-0.96756,0.17414,-0.01261,4018.82,0.423183,-0.167736,0.545822,-0.703462,-0.68066,0.58072,-0.3539,2.28,2.57,2.69,2.94,3.14,3.03,2.99,3.86,3.19,3.93,3.98,3.9,3.82,3.83,3.7,3238,13.491667,60558.893667,191.674347,1052.811035,-217.272263,1.21992621894117,2.17604300255385,2.41446516628775,15.804514,800.34198,152.388306,102.890556,1199.77832,-24.294935,"CRUZINT"
194,16,49,18.901,4021.96,0.692948,-0.041793,0.700786,-0.164239,-0.96856,0.17001,-0.01411,4018.84,0.423935,-0.159823,0.548921,-0.70244,-0.67721,0.60446,-0.33948,2.28,2.57,2.69,2.94,3.14,3.03,2.99,3.86,3.19,3.93,3.97,3.9,3.82,3.83,3.7,3240,13.5,60558.902,191.674347,1052.811035,-217.272263,1.22045265835683,2.17619482907597,2.41466406423188,15.80899,800.382202,152.364746,102.989052,1199.859009,-24.197186,"CRUZINT"
195,16,49,18.913,4021.98,0.692977,-0.042199,0.700684,-0.164447,-0.9714,0.17158,-0.01514,4018.86,0.424545,-0.152185,0.551744,-0.701556,-0.64458,0.62068,-0.33974,2.28,2.57,2.69,2.94,3.14,3.03,2.98,3.86,3.19,3.93,3.97,3.9,3.81,3.83,3.69,3243,13.5125,60558.9145,191.674347,1052.811035,-217.272263,1.22114029130572,2.17641065057759,2.41490671029054,15.81072,800.429199,152.320648,103.111267,1199.979126,-24.058023,"CRUZINT"
196,16,49,18.918,4022,0.69296,-0.04266,0.700621,-0.164675,-0.96697,0.16692,-0.0146,4018.88,0.425263,-0.145054,0.55428,-0.700632,-0.63627,0.62219,-0.34771,2.28,2.57,2.69,2.94,3.14,3.03,2.98,3.86,3.19,3.94,3.97,3.9,3.81,3.82,3.69,3244,13.516667,60558.918667,191.674347,1052.811035,-217.272263,1.22131655012345,2.17646194652495,2.41497258045884,15.80561,800.45166,152.313217,103.139931,1200.01355,-24.015829,"CRUZINT"
197,16,49,18.974,4022.02,0.692961,-0.043064,0.700534,-0.164934,-0.96748,0.17325,-0.01411,4018.9,0.425655,-0.138017,0.556516,-0.700042,-0.65838,0.63801,-0.34875,2.28,2.57,2.69,2.94,3.14,3.03,2.98,3.85,3.19,3.93,3.97,3.9,3.8,3.82,3.69,3258,13.575,60558.977,191.674347,1052.811035,-217.272263,1.22332514275175,2.17701624136514,2.41574831004392,15.737266,800.718018,152.132248,103.444511,1200.438477,-23.479471,"CRUZINT"
198,16,49,18.979,4022.04,0.692967,-0.04339,0.700473,-0.16508,-0.96641,0.16574,-0.01958,4018.92,0.426141,-0.130763,0.558801,-0.699319,-0.65179,0.6506,-0.34113,2.28,2.57,2.69,2.94,3.14,3.03,2.98,3.85,3.19,3.93,3.97,3.91,3.8,3.82,3.69,3259,13.579167,60558.981167,191.674347,1052.811035,-217.272263,1.22342407424966,2.17702997370102,2.41579915291413,15.739445,800.731262,152.119965,103.45694,1200.460938,-23.44508,"CRUZINT"
199,16,49,18.995,4022.06,0.692946,-0.043697,0.700404,-0.165381,-0.97124,0.16954,-0.0159,4018.94,0.42658,-0.123432,0.561157,-0.698497,-0.62957,0.66153,-0.34668,2.28,2.57,2.7,2.94,3.14,3.03,2.98,3.85,3.19,3.94,3.97,3.91,3.79,3.82,3.7,3263,13.595833,60558.997833,191.674347,1052.811035,-217.272263,1.22373281726736,2.17691426408506,2.41610728728692,15.720842,800.785461,152.082123,103.482475,1200.519531,-23.282776,"CRUZINT"
200,16,49,19,4022.08,0.692975,-0.043928,0.700346,-0.165443,-0.97112,0.16406,-0.01753,4018.96,0.427167,-0.116181,0.563483,-0.697508,-0.6216,0.68556,-0.33496,2.28,2.57,2.7,2.94,3.14,3.02,2.98,3.85,3.19,3.94,3.98,3.91,3.78,3.82,3.7,3264,13.6,60559.002,191.674347,1052.811035,-217.272263,1.22381826568861,2.17693230939833,2.41614531936861,15.721159,800.798706,152.073914,103.4981,1200.532104,-23.264771,"CRUZINT"
201,16,49,19.034,4022.1,0.692919,-0.044087,0.700369,-0.165542,-0.97015,0.16971,-0.01463,4018.98,0.427434,-0.108787,0.565497,-0.696906,-0.61834,0.68563,-0.32894,2.28,2.57,2.7,2.94,3.14,3.02,2.98,3.85,3.19,3.94,3.98,3.91,3.78,3.81,3.7,3272,13.633333,60559.035333,191.674347,1052.811035,-217.272263,1.22422494206724,2.17681122554108,2.41652139231512,15.696768,800.894348,152.014328,103.509453,1200.653564,-23.00658,"CRUZINT"
202,16,49,19.039,4022.12,0.692946,-0.044445,0.700266,-0.165763,-0.96709,0.1686,-0.01639,4019,0.427594,-0.101554,0.567343,-0.6964,-0.60036,0.69557,-0.33369,2.28,2.57,2.7,2.94,3.14,3.02,2.98,3.85,3.19,3.93,3.97,3.91,3.77,3.81,3.7,3273,13.6375,60559.0395,191.674347,1052.811035,-217.272263,1.22431018316946,2.17684271040546,2.41654655461094,15.693723,800.904541,152.010849,103.523933,1200.670898,-22.988298,"CRUZINT"
203,16,49,19.073,4022.14,0.692934,-0.044751,0.700238,-0.165852,-0.96582,0.163,-0.01862,4019.02,0.427811,-0.094717,0.568877,-0.695978,-0.59012,0.70234,-0.32964,2.28,2.57,2.7,2.94,3.14,3.02,2.97,3.85,3.19,3.93,3.97,3.91,3.77,3.81,3.7,3282,13.675,60559.077,191.674347,1052.811035,-217.272263,1.22477396109076,2.17670269531634,2.41697691305113,15.661648,800.989014,151.916565,103.535782,1200.811279,-22.690393,"CRUZINT"
204,16,49,19.078,4022.16,0.692862,-0.044878,0.700285,-0.165921,-0.9661,0.17036,-0.01451,4019.04,0.427971,-0.088275,0.570161,-0.695676,-0.58004,0.70844,-0.32274,2.28,2.57,2.7,2.94,3.14,3.02,2.97,3.85,3.18,3.93,3.96,3.91,3.77,3.8,3.7,3283,13.679167,60559.081167,191.674347,1052.811035,-217.272263,1.22481812656756,2.17673986200345,2.41697024695793,15.65824,800.990967,151.903275,103.53299,1200.842041,-22.661537,"CRUZINT"
205,16,49,19.114,4022.18,0.692869,-0.045053,0.700248,-0.165998,-0.96781,0.17102,-0.0181,4019.06,0.428034,-0.082329,0.571085,-0.695608,-0.57718,0.73275,-0.33226,2.28,2.57,2.7,2.93,3.14,3.02,2.97,3.85,3.18,3.94,3.96,3.91,3.76,3.8,3.7,3291,13.7125,60559.1145,191.674347,1052.811035,-217.272263,1.22532885064953,2.17696076331965,2.41708995315113,15.603636,801.073547,151.784378,103.553947,1201.064087,-22.411087,"CRUZINT"
206,16,49,19.118,4022.2,0.692838,-0.045253,0.700245,-0.166088,-0.96715,0.16514,-0.01411,4019.08,0.428062,-0.076856,0.571639,-0.695762,-0.57659,0.74566,-0.34844,2.29,2.58,2.7,2.93,3.14,3.02,2.97,3.85,3.18,3.93,3.96,3.92,3.76,3.8,3.7,3292,13.716667,60559.118667,191.674347,1052.811035,-217.272263,1.22539204211838,2.17698589005922,2.41710681447899,15.596345,801.081848,151.767654,103.55455,1201.094482,-22.375292,"CRUZINT"
207,16,49,19.172,4022.22,0.692852,-0.045479,0.700165,-0.166303,-0.96899,0.17078,-0.01488,4019.1,0.428192,-0.071428,0.572303,-0.695715,-0.56546,0.74039,-0.35739,2.29,2.58,2.7,2.93,3.14,3.02,2.97,3.84,3.18,3.93,3.96,3.92,3.76,3.79,3.7,3305,13.770833,60559.172833,191.674347,1052.811035,-217.272263,1.22568622211251,2.17699298668518,2.41728889550461,15.420682,801.236206,151.528183,103.366707,1201.533691,-21.76852,"CRUZINT"
208,16,49,19.177,4022.24,0.692826,-0.045646,0.700184,-0.16629,-0.96952,0.16009,-0.01618,4019.12,0.427831,-0.065851,0.573065,-0.69586,-0.55303,0.72163,-0.35782,2.29,2.57,2.7,2.93,3.14,3.02,2.97,3.84,3.18,3.94,3.96,3.93,3.76,3.79,3.7,3306,13.775,60559.177,191.674347,1052.811035,-217.272263,1.22570326163606,2.17701549505961,2.41727858930727,15.404339,801.249023,151.511688,103.354553,1201.56604,-21.734127,"CRUZINT"
209,16,49,19.198,4022.26,0.692729,-0.045866,0.700209,-0.166521,-0.97173,0.16642,-0.01761,4019.14,0.427433,-0.060136,0.574114,-0.695757,-0.56053,0.72424,-0.34038,2.29,2.57,2.7,2.93,3.14,3.02,2.97,3.84,3.18,3.94,3.95,3.93,3.76,3.78,3.7,3312,13.8,60559.202,191.674347,1052.811035,-217.272263,1.22565077635385,2.17693645085697,2.41731949656079,15.297672,801.313293,151.38121,103.239517,1201.721069,-21.500937,"CRUZINT"
210,16,49,19.203,4022.28,0.692648,-0.046216,0.700225,-0.166699,-0.9711,0.1748,-0.01592,4019.16,0.426939,-0.054471,0.57537,-0.695489,-0.5437,0.74069,-0.33674,2.29,2.57,2.7,2.93,3.14,3.02,2.97,3.84,3.17,3.94,3.95,3.94,3.76,3.78,3.71,3313,13.804167,60559.206167,191.674347,1052.811035,-217.272263,1.22562289382458,2.1769145980004,2.41732222505232,15.27891,801.322266,151.361084,103.217545,1201.741821,-21.467009,"CRUZINT"
211,16,49,19.257,4022.3,0.692547,-0.046799,0.700281,-0.166719,-0.9714,0.14144,-0.02333,4019.18,0.426295,-0.049037,0.576498,-0.695355,-0.53505,0.75391,-0.33357,2.29,2.57,2.7,2.93,3.14,3.02,2.96,3.84,3.17,3.94,3.95,3.95,3.76,3.78,3.71,3326,13.858333,60559.260333,191.674347,1052.811035,-217.272263,1.22498516510111,2.17656457723665,2.41724292941969,15.124304,801.397461,151.137634,102.859955,1202.003784,-21.037252,"CRUZINT"
212,16,49,19.262,4022.32,0.692437,-0.046912,0.700378,-0.166738,-0.97077,0.16504,-0.01421,4019.2,0.425421,-0.043765,0.57742,-0.695477,-0.51648,0.74677,-0.33194,2.29,2.57,2.7,2.92,3.14,3.02,2.96,3.84,3.17,3.94,3.95,3.95,3.76,3.77,3.71,3327,13.8625,60559.2645,191.674347,1052.811035,-217.272263,1.22498875923065,2.17662069927199,2.41719230497475,15.116892,801.400146,151.113281,102.858009,1202.02063,-21.039785,"CRUZINT"
213,16,49,19.267,4022.34,0.692366,-0.04697,0.700447,-0.166727,-0.97065,0.16363,-0.015,4019.22,0.424413,-0.03874,0.57839,-0.695584,-0.50786,0.74597,-0.3196,2.29,2.57,2.7,2.92,3.14,3.02,2.96,3.84,3.17,3.94,3.95,3.96,3.76,3.77,3.71,3328,13.866667,60559.268667,191.674347,1052.811035,-217.272263,1.22483221001465,2.17657212589181,2.41713750834094,15.109965,801.405029,151.108582,102.806717,1202.031494,-21.021252,"CRUZINT"
214,16,49,19.312,4022.36,0.692087,-0.046898,0.700525,-0.167575,-0.97095,0.17144,-0.01317,4019.24,0.423305,-0.034017,0.579398,-0.695668,-0.50961,0.76031,-0.3223,2.29,2.57,2.7,2.91,3.14,3.02,2.96,3.84,3.16,3.95,3.95,3.96,3.76,3.76,3.71,3339,13.9125,60559.3145,191.674347,1052.811035,-217.272263,1.2240204984953,2.17625511215115,2.41691420091013,15.04916,801.449341,150.954742,102.491341,1202.15625,-20.806068,"CRUZINT"
215,16,49,19.32,4022.38,0.692028,-0.046971,0.700575,-0.167585,-0.96624,0.16171,-0.01494,4019.26,0.422253,-0.029444,0.580339,-0.695731,-0.50464,0.75499,-0.32295,2.29,2.57,2.7,2.91,3.14,3.02,2.96,3.84,3.16,3.95,3.95,3.96,3.76,3.76,3.72,3341,13.920833,60559.322833,191.674347,1052.811035,-217.272263,1.22380146628461,2.1762229789929,2.41680340260215,15.025372,801.46936,150.933914,102.42308,1202.173096,-20.794062,"CRUZINT"
216,16,49,19.334,4022.4,0.691861,-0.047012,0.700685,-0.167807,-0.96725,0.17554,-0.01191,4019.28,0.421332,-0.025159,0.580989,-0.695915,-0.51606,0.79538,-0.32997,2.29,2.58,2.7,2.9,3.15,3.02,2.96,3.84,3.15,3.95,3.95,3.97,3.77,3.76,3.72,3344,13.933333,60559.335333,191.674347,1052.811035,-217.272263,1.2234481642703,2.17605721315007,2.41673194107587,15.010043,801.484436,150.909073,102.314194,1202.173584,-20.758787,"CRUZINT"
217,16,49,19.339,4022.42,0.691805,-0.047225,0.700675,-0.168017,-0.96469,0.16471,-0.0151,4019.3,0.42012,-0.020872,0.581578,-0.696298,-0.49003,0.77333,-0.33027,2.29,2.58,2.7,2.9,3.15,3.02,2.96,3.83,3.15,3.95,3.95,3.98,3.77,3.76,3.72,3345,13.9375,60559.3395,191.674347,1052.811035,-217.272263,1.22329723619521,2.17600974272453,2.41667934396604,15.010251,801.484436,150.897415,102.267738,1202.178711,-20.747713,"CRUZINT"
218,16,49,19.398,4022.44,0.691743,-0.047252,0.700742,-0.167985,-0.97039,0.16827,-0.01313,4019.32,0.418976,-0.01661,0.582258,-0.696534,-0.48807,0.78027,-0.32781,2.29,2.58,2.7,2.9,3.15,3.02,2.96,3.83,3.14,3.95,3.95,3.98,3.77,3.75,3.72,3360,14,60559.402,191.674347,1052.811035,-217.272263,1.22099776654562,2.17510739146451,2.41604223985683,14.988629,801.539001,150.786011,101.553734,1202.226929,-20.538572,"CRUZINT"
219,16,49,19.403,4022.46,0.691697,-0.04727,0.700768,-0.168065,-0.97194,0.16957,-0.01528,4019.34,0.417795,-0.012535,0.582881,-0.696807,-0.47402,0.77459,-0.32966,2.29,2.58,2.71,2.89,3.15,3.02,2.96,3.83,3.14,3.95,3.95,3.98,3.78,3.75,3.73,3361,14.004167,60559.406167,191.674347,1052.811035,-217.272263,1.22082014138995,2.17507156927419,2.41596075688408,14.983439,801.542908,150.774887,101.495232,1202.243408,-20.520887,"CRUZINT"
220,16,49,19.407,4022.48,0.691742,-0.04791,0.700584,-0.168462,-0.96592,0.18086,-0.01092,4019.36,0.416751,-0.008633,0.583396,-0.69706,-0.47832,0.78803,-0.31744,2.29,2.58,2.71,2.89,3.15,3.02,2.96,3.83,3.14,3.95,3.95,3.98,3.78,3.75,3.73,3362,14.008333,60559.410333,191.674347,1052.811035,-217.272263,1.22066148828498,2.17506191975414,2.4158668908095,14.978979,801.548279,150.767303,101.449173,1202.252686,-20.522306,"CRUZINT"
221,16,49,19.437,4022.5,0.691582,-0.047862,0.700712,-0.168601,-0.96802,0.16155,-0.01463,4019.38,0.415765,-0.005118,0.583669,-0.697455,-0.45248,0.80043,-0.30507,2.29,2.58,2.71,2.89,3.15,3.02,2.95,3.83,3.14,3.95,3.95,3.99,3.78,3.75,3.73,3369,14.0375,60559.4395,191.674347,1052.811035,-217.272263,1.21971526916375,2.17497113551167,2.41533759772726,14.973656,801.560486,150.748932,101.162964,1202.319702,-20.500666,"CRUZINT"
222,16,49,19.441,4022.52,0.691555,-0.047858,0.700732,-0.16863,-0.96885,0.16783,-0.01395,4019.4,0.414751,-0.001899,0.583805,-0.697961,-0.44536,0.82356,-0.31445,2.29,2.58,2.71,2.88,3.15,3.02,2.95,3.82,3.13,3.95,3.94,3.99,3.78,3.75,3.73,3370,14.041667,60559.443667,191.674347,1052.811035,-217.272263,1.21957047565137,2.17493135560153,2.4152808628253,14.963254,801.570923,150.746811,101.11982,1202.323242,-20.494583,"CRUZINT"
223,16,49,19.477,4022.54,0.691497,-0.047879,0.700775,-0.168682,-0.96847,0.16504,-0.01334,4019.42,0.41361,0.001132,0.583941,-0.698526,-0.44373,0.8147,-0.33829,2.29,2.58,2.71,2.88,3.15,3.02,2.95,3.82,3.13,3.95,3.94,3.99,3.79,3.75,3.73,3378,14.075,60559.477,191.674347,1052.811035,-217.272263,1.21846557406481,2.17462516625653,2.41484933198749,14.952516,801.591064,150.767502,100.765327,1202.390991,-20.393553,"CRUZINT"
224,16,49,19.483,4022.56,0.691252,-0.047778,0.70103,-0.168658,-0.96908,0.16704,-0.01287,4019.44,0.412444,0.004218,0.584252,-0.698944,-0.44545,0.79583,-0.34471,2.29,2.58,2.71,2.88,3.15,3.02,2.94,3.82,3.13,3.95,3.94,3.99,3.79,3.74,3.73,3380,14.083333,60559.485333,191.674347,1052.811035,-217.272263,1.21819582871792,2.17451668254433,2.4147754397229,14.951349,801.599487,150.764587,100.669769,1202.414917,-20.344025,"CRUZINT"
225,16,49,19.516,4022.58,0.691201,-0.047782,0.701077,-0.168667,-0.97048,0.16722,-0.01475,4019.46,0.411172,0.006949,0.584923,-0.69911,-0.4138,0.77872,-0.33383,2.29,2.58,2.71,2.88,3.15,3.02,2.93,3.82,3.13,3.95,3.94,4,3.79,3.74,3.74,3388,14.116667,60559.518667,191.674347,1052.811035,-217.272263,1.2171610151159,2.17442944947488,2.41418137547326,14.920337,801.66925,150.714493,100.305611,1202.573486,-20.214539,"CRUZINT"
226,16,49,19.521,4022.6,0.691115,-0.047848,0.70113,-0.168781,-0.96755,0.16903,-0.01817,4019.48,0.410028,0.009369,0.585732,-0.699076,-0.4427,0.7978,-0.30952,2.29,2.58,2.71,2.87,3.15,3.02,2.93,3.81,3.13,3.94,3.94,3.99,3.8,3.74,3.74,3389,14.120833,60559.522833,191.674347,1052.811035,-217.272263,1.2169804722358,2.17441561797397,2.41407626359322,14.91334,801.679626,150.70903,100.248512,1202.59082,-20.206221,"CRUZINT"
227,16,49,19.554,4022.62,0.691027,-0.047989,0.701182,-0.168885,-0.96917,0.16957,-0.0142,4019.5,0.40909,0.01133,0.586227,-0.699181,-0.42625,0.79804,-0.31784,2.29,2.58,2.71,2.87,3.15,3.02,2.92,3.81,3.14,3.94,3.94,4,3.8,3.74,3.74,3397,14.154167,60559.556167,191.674347,1052.811035,-217.272263,1.21554989574331,2.17430691445151,2.41324086658041,14.873616,801.723511,150.593552,99.81337,1202.699585,-20.178812,"CRUZINT"
228,16,49,19.559,4022.64,0.690925,-0.048222,0.701175,-0.169267,-0.97269,0.17294,-0.01308,4019.52,0.408233,0.012671,0.586396,-0.699517,-0.41898,0.77412,-0.31285,2.29,2.58,2.71,2.87,3.15,3.02,2.91,3.81,3.14,3.93,3.94,4,3.81,3.74,3.74,3398,14.158333,60559.560333,191.674347,1052.811035,-217.272263,1.21536383027914,2.17428149384771,2.4131426061687,14.871136,801.716248,150.582764,99.757248,1202.710449,-20.174534,"CRUZINT"
229,16,49,19.618,4022.66,0.690845,-0.048439,0.701245,-0.169242,-0.97414,0.15677,-0.01301,4019.54,0.407596,0.013623,0.58664,-0.699667,-0.4198,0.78946,-0.29649,2.29,2.58,2.72,2.87,3.15,3.01,2.9,3.81,3.14,3.93,3.94,4,3.81,3.74,3.74,3412,14.216667,60559.618667,191.674347,1052.811035,-217.272263,1.2122696828989,2.17358661295792,2.41175692729835,14.814012,801.640381,150.403702,98.961037,1202.608521,-20.353662,"CRUZINT"
230,16,49,19.623,4022.68,0.690806,-0.048499,0.701244,-0.169384,-0.97424,0.16307,-0.01041,4019.56,0.407174,0.01427,0.586699,-0.69985,-0.41724,0.79124,-0.31407,2.29,2.58,2.72,2.87,3.15,3.01,2.9,3.8,3.14,3.92,3.93,4,3.81,3.73,3.74,3414,14.225,60559.627,191.674347,1052.811035,-217.272263,1.2117424140075,2.17344087135788,2.41154503427173,14.796176,801.630249,150.391769,98.838928,1202.563354,-20.408669,"CRUZINT"
231,16,49,19.628,4022.7,0.690702,-0.04863,0.701328,-0.169428,-0.96821,0.16241,-0.01186,4019.58,0.406999,0.014588,0.586752,-0.699901,-0.41197,0.78353,-0.31266,2.29,2.58,2.72,2.87,3.15,3.01,2.89,3.79,3.14,3.92,3.93,4,3.82,3.73,3.74,3415,14.229167,60559.631167,191.674347,1052.811035,-217.272263,1.21148789928223,2.17336943673823,2.41144361912009,14.793611,801.61554,150.386292,98.779205,1202.542603,-20.433378,"CRUZINT"
232,16,49,19.653,4022.72,0.690649,-0.048675,0.70135,-0.169538,-0.96275,0.16368,-0.00938,4019.6,0.407123,0.01439,0.586748,-0.699836,-0.41258,0.79257,-0.30101,2.29,2.57,2.72,2.87,3.15,3,2.88,3.79,3.14,3.91,3.93,4,3.82,3.73,3.75,3421,14.254167,60559.656167,191.674347,1052.811035,-217.272263,1.20993684327797,2.17300148316939,2.4107601444416,14.728551,801.560669,150.370605,98.434128,1202.400879,-20.634865,"CRUZINT"
233,16,49,19.661,4022.74,0.690594,-0.048689,0.701387,-0.169605,-0.96524,0.16558,-0.0129,4019.62,0.407553,0.013552,0.586666,-0.699671,-0.42751,0.81653,-0.30273,2.29,2.57,2.72,2.86,3.15,3,2.87,3.78,3.14,3.9,3.94,4,3.83,3.73,3.75,3423,14.2625,60559.6645,191.674347,1052.811035,-217.272263,1.20940477790299,2.17295746295483,2.41044765864028,14.701046,801.538025,150.377029,98.32505,1202.355469,-20.737045,"CRUZINT"
234,16,49,19.694,4022.76,0.690538,-0.048683,0.701419,-0.169704,-0.96415,0.16675,-0.01423,4019.64,0.408127,0.012692,0.586236,-0.699714,-0.42662,0.82614,-0.31419,2.29,2.57,2.72,2.86,3.15,2.99,2.86,3.78,3.14,3.9,3.93,4,3.83,3.73,3.75,3431,14.295833,60559.697833,191.674347,1052.811035,-217.272263,1.20711731552342,2.17260344142224,2.40925424473042,14.55786,801.445557,150.459442,97.862846,1202.115356,-21.16177,"CRUZINT"
235,16,49,19.699,4022.78,0.690468,-0.04865,0.701452,-0.169861,-0.96671,0.17018,-0.01407,4019.66,0.408728,0.012195,0.585838,-0.699705,-0.43049,0.81248,-0.33911,2.29,2.57,2.72,2.85,3.16,2.98,2.85,3.77,3.14,3.89,3.93,4,3.84,3.73,3.74,3432,14.3,60559.702,191.674347,1052.811035,-217.272263,1.20684573007525,2.17254440721781,2.40912800228108,14.539396,801.431335,150.471893,97.805878,1202.08667,-21.204853,"CRUZINT"
236,16,49,19.737,4022.8,0.6905,-0.048582,0.701386,-0.17002,-0.9684,0.16814,-0.02105,4019.68,0.409196,0.012174,0.58646,-0.69891,-0.42018,0.83151,-0.33484,2.29,2.57,2.72,2.85,3.16,2.97,2.85,3.77,3.15,3.89,3.93,4,3.84,3.73,3.75,3441,14.3375,60559.7395,191.674347,1052.811035,-217.272263,1.20460372370161,2.17223775954783,2.40791214672894,14.313223,801.328857,150.499527,97.348785,1201.869629,-21.616781,"CRUZINT"
237,16,49,19.742,4022.82,0.690423,-0.048488,0.701423,-0.170207,-0.96692,0.16806,-0.0192,4019.7,0.409622,0.011975,0.587,-0.69821,-0.42207,0.84249,-0.32664,2.29,2.57,2.72,2.84,3.16,2.95,2.84,3.76,3.15,3.88,3.93,3.99,3.84,3.73,3.75,3442,14.341667,60559.743667,191.674347,1052.811035,-217.272263,1.20436968349033,2.17225201291184,2.40774140701794,14.281946,801.322998,150.498276,97.303307,1201.853638,-21.671951,"CRUZINT"
238,16,49,19.797,4022.84,0.690324,-0.048408,0.701466,-0.170457,-0.96737,0.17306,-0.01836,4019.72,0.410098,0.011304,0.587078,-0.697876,-0.42819,0.83053,-0.33229,2.29,2.57,2.73,2.84,3.16,2.94,2.84,3.76,3.15,3.88,3.93,3.99,3.85,3.73,3.75,3455,14.395833,60559.797833,191.674347,1052.811035,-217.272263,1.20203453782593,2.17448282227328,2.40407371253656,13.973274,801.242615,150.390717,96.920372,1202.036865,-22.712559,"CRUZINT"
239,16,49,19.802,4022.86,0.690201,-0.048306,0.701499,-0.170849,-0.96812,0.17067,-0.01789,4019.74,0.41056,0.010634,0.586985,-0.697693,-0.42079,0.81149,-0.33112,2.28,2.57,2.73,2.83,3.16,2.93,2.83,3.75,3.15,3.87,3.93,3.99,3.85,3.73,3.75,3456,14.4,60559.802,191.674347,1052.811035,-217.272263,1.20191612971568,2.17445359064698,2.40402115935781,13.951848,801.233704,150.377945,96.898254,1202.019653,-22.736042,"CRUZINT"
240,16,49,19.807,4022.88,0.690115,-0.048204,0.701516,-0.171153,-0.97147,0.16268,-0.01214,4019.76,0.411024,0.00985,0.586933,-0.697475,-0.41268,0.79888,-0.3163,2.28,2.57,2.73,2.83,3.16,2.92,2.83,3.75,3.16,3.87,3.93,3.99,3.86,3.73,3.75,3458,14.408333,60559.810333,191.674347,1052.811035,-217.272263,1.20162479294062,2.17443758800319,2.4038392626907,13.932618,801.21106,150.354706,96.847832,1201.983154,-22.811264,"CRUZINT"
241,16,49,19.833,4022.9,0.690044,-0.04814,0.701589,-0.171159,-0.9748,0.1619,-0.01489,4019.78,0.411351,0.008169,0.586897,-0.697334,-0.41732,0.80136,-0.29272,2.28,2.57,2.73,2.83,3.16,2.92,2.82,3.75,3.16,3.86,3.93,3.99,3.86,3.73,3.75,3464,14.433333,60559.835333,191.674347,1052.811035,-217.272263,1.20071393692707,2.17205503187285,2.40545801837159,13.875255,801.122681,150.276062,96.656075,1201.418091,-22.589808,"CRUZINT"
242,16,49,19.84,4022.92,0.690025,-0.047994,0.70158,-0.171311,-0.9762,0.16619,-0.00776,4019.8,0.411766,0.005974,0.586688,-0.697288,-0.44156,0.81351,-0.28594,2.28,2.57,2.73,2.83,3.17,2.91,2.82,3.74,3.16,3.86,3.93,3.99,3.86,3.73,3.75,3466,14.441667,60559.843667,191.674347,1052.811035,-217.272263,1.20045572876478,2.17213329374782,2.40520961594239,13.871078,801.097229,150.244644,96.633438,1201.371582,-22.71674,"CRUZINT"
243,16,49,19.877,4022.94,0.690011,-0.047802,0.701576,-0.171439,-0.96669,0.17057,-0.00455,4019.82,0.412176,0.003511,0.586243,-0.697437,-0.44212,0.79869,-0.29436,2.28,2.57,2.74,2.82,3.17,2.9,2.81,3.74,3.16,3.86,3.93,3.99,3.86,3.73,3.75,3474,14.475,60559.877,191.674347,1052.811035,-217.272263,1.19948138801897,2.17236428476958,2.40433176498056,13.901456,800.999084,150.225189,96.553513,1201.174316,-23.195103,"CRUZINT"
244,16,49,19.882,4022.96,0.689857,-0.047586,0.701715,-0.171546,-0.96366,0.17428,-0.00307,4019.84,0.412414,0.000858,0.585971,-0.697533,-0.42365,0.7869,-0.30355,2.28,2.57,2.74,2.82,3.17,2.89,2.8,3.74,3.16,3.85,3.93,3.98,3.87,3.73,3.75,3476,14.483333,60559.885333,191.674347,1052.811035,-217.272263,1.19930436008033,2.17236323071065,2.40421246322652,13.923195,800.973816,150.230331,96.548019,1201.115234,-23.29311,"CRUZINT"
245,16,49,19.937,4022.98,0.689879,-0.047388,0.701704,-0.171562,-0.96326,0.17301,-0.0037,4019.86,0.412405,-0.002116,0.585991,-0.697519,-0.43469,0.78901,-0.29961,2.28,2.58,2.74,2.82,3.17,2.89,2.8,3.74,3.16,3.85,3.93,3.98,3.87,3.74,3.76,3489,14.5375,60559.9395,191.674347,1052.811035,-217.272263,1.19839813611498,2.17248515626086,2.40348170979733,14.088405,800.814636,150.364243,96.622192,1200.682007,-24.022514,"CRUZINT"
246,16,49,19.942,4023,0.689835,-0.047122,0.701748,-0.171631,-0.96395,0.17725,-0.00868,4019.88,0.412221,-0.005711,0.586155,-0.697469,-0.44312,0.7948,-0.30226,2.27,2.58,2.75,2.83,3.17,2.88,2.79,3.73,3.17,3.84,3.93,3.98,3.87,3.73,3.76,3490,14.541667,60559.943667,191.674347,1052.811035,-217.272263,1.19830990151174,2.17247792235844,2.40342840986403,14.105603,800.802063,150.374084,96.625778,1200.641479,-24.082811,"CRUZINT"
247,16,49,19.947,4023.02,0.689873,-0.046916,0.701707,-0.171705,-0.96802,0.18263,-0.00713,4019.9,0.41204,-0.009773,0.586114,-0.697566,-0.45518,0.77963,-0.30474,2.27,2.58,2.75,2.83,3.16,2.88,2.78,3.73,3.17,3.84,3.93,3.98,3.87,3.73,3.76,3491,14.545833,60559.947833,191.674347,1052.811035,-217.272263,1.1982839994041,2.1724619503522,2.40342574292133,14.113575,800.794373,150.391464,96.653137,1200.585693,-24.15169,"CRUZINT"
248,16,49,19.978,4023.04,0.689938,-0.046726,0.701616,-0.171865,-0.96617,0.18363,-0.01045,4019.92,0.411878,-0.014133,0.585744,-0.697897,-0.46512,0.76217,-0.30045,2.26,2.59,2.76,2.83,3.16,2.87,2.78,3.73,3.17,3.84,3.93,3.98,3.87,3.73,3.76,3499,14.579167,60559.981167,191.674347,1052.811035,-217.272263,1.19748573288143,2.17214482014761,2.40317888602365,14.245389,800.69812,150.528732,96.700768,1200.142456,-24.685219,"CRUZINT"
249,16,49,19.983,4023.06,0.68999,-0.046475,0.701534,-0.172059,-0.96631,0.18183,-0.0112,4019.94,0.411691,-0.018794,0.585103,-0.698435,-0.47283,0.7451,-0.29309,2.25,2.6,2.77,2.84,3.15,2.87,2.77,3.73,3.17,3.84,3.93,3.98,3.88,3.73,3.76,3500,14.583333,60559.985333,191.674347,1052.811035,-217.272263,1.19736248004084,2.172076533649,2.40315878803021,14.268453,800.679565,150.553711,96.707085,1200.071655,-24.762129,"CRUZINT"
250,16,49,20.013,4023.08,0.690096,-0.046296,0.701406,-0.172202,-0.96973,0.17782,-0.01545,4019.96,0.411563,-0.023914,0.584501,-0.698858,-0.47069,0.75265,-0.2862,2.24,2.6,2.77,2.85,3.14,2.87,2.76,3.73,3.18,3.83,3.93,3.98,3.87,3.74,3.76,3507,14.6125,60560.0145,191.674347,1052.811035,-217.272263,1.19664524047649,2.17161661307311,2.40309991247739,14.385696,800.50824,150.714554,96.846428,1199.488525,-25.406065,"CRUZINT"
251,16,49,20.018,4023.1,0.690191,-0.046084,0.7013,-0.172309,-0.97103,0.1769,-0.01336,4019.98,0.411444,-0.029391,0.583332,-0.699695,-0.4797,0.7255,-0.28767,2.23,2.61,2.78,2.86,3.13,2.86,2.75,3.73,3.18,3.83,3.93,3.98,3.88,3.73,3.76,3508,14.616667,60560.018667,191.674347,1052.811035,-217.272263,1.19654329631438,2.17147838486247,2.40315971499917,14.400762,800.478882,150.742752,96.86631,1199.390137,-25.485643,"CRUZINT"
252,16,49,20.053,4023.12,0.69038,-0.045822,0.701123,-0.172341,-0.96802,0.18018,-0.01034,4020,0.41149,-0.03551,0.581449,-0.700951,-0.50134,0.70314,-0.28979,2.22,2.61,2.79,2.88,3.12,2.86,2.74,3.73,3.18,3.83,3.93,3.98,3.87,3.73,3.76,3517,14.654167,60560.056167,191.674347,1052.811035,-217.272263,1.19482361856496,2.17001194645427,2.40335481924126,14.520915,800.228455,151.011566,96.906128,1198.377686,-26.367723,"CRUZINT"
253,16,49,20.061,4023.14,0.690614,-0.045436,0.700941,-0.172249,-0.96146,0.18019,-0.01559,4020.02,0.411788,-0.042814,0.57989,-0.701659,-0.50345,0.77944,-0.29171,2.21,2.62,2.79,2.89,3.11,2.86,2.73,3.73,3.18,3.82,3.93,3.98,3.88,3.73,3.76,3519,14.6625,60560.0645,191.674347,1052.811035,-217.272263,1.19452191899056,2.16977538607482,2.40336906533777,14.540682,800.163147,151.095383,96.947548,1198.152588,-26.59441,"CRUZINT"
254,16,49,20.113,4023.16,0.690822,-0.045067,0.700764,-0.172229,-0.95874,0.17902,-0.01746,4020.04,0.411747,-0.050376,0.578409,-0.702402,-0.48467,0.82997,-0.35786,2.2,2.63,2.8,2.9,3.1,2.85,2.72,3.72,3.19,3.82,3.93,3.98,3.87,3.74,3.76,3531,14.7125,60560.1145,191.674347,1052.811035,-217.272263,1.19283782606633,2.16782562994287,2.40403332653797,14.724115,799.888794,151.728455,96.936142,1197.139648,-27.265863,"CRUZINT"
255,16,49,20.118,4023.18,0.691136,-0.044597,0.700512,-0.172117,-0.96113,0.17636,-0.01163,4020.06,0.411193,-0.05741,0.576363,-0.703868,-0.52468,0.79082,-0.4077,2.19,2.63,2.81,2.91,3.09,2.85,2.71,3.72,3.19,3.82,3.93,3.98,3.87,3.73,3.76,3532,14.716667,60560.118667,191.674347,1052.811035,-217.272263,1.19271777904132,2.16762479779688,2.40413818256483,14.735941,799.881836,151.771454,96.924309,1197.071411,-27.281469,"CRUZINT"
256,16,49,20.133,4023.2,0.691574,-0.043973,0.700181,-0.17187,-0.9664,0.17589,-0.01768,4020.08,0.410434,-0.064106,0.574641,-0.70514,-0.53195,0.70018,-0.37816,2.19,2.63,2.81,2.92,3.08,2.85,2.71,3.72,3.19,3.81,3.93,3.98,3.87,3.74,3.76,3536,14.733333,60560.135333,191.674347,1052.811035,-217.272263,1.19233001061271,2.16697418233583,2.40447832228486,14.788477,799.862427,151.91626,96.888702,1196.846802,-27.336771,"CRUZINT"
257,16,49,20.141,4023.22,0.691862,-0.043686,0.699928,-0.171812,-0.96667,0.17768,-0.03402,4020.1,0.409588,-0.071465,0.573822,-0.705591,-0.54855,0.72313,-0.3275,2.18,2.64,2.81,2.93,3.07,2.85,2.7,3.72,3.19,3.81,3.93,3.98,3.87,3.74,3.77,3538,14.741667,60560.143667,191.674347,1052.811035,-217.272263,1.19222802504866,2.16677293966415,2.40459581866988,14.813661,799.852112,151.970474,96.891159,1196.763428,-27.370142,"CRUZINT"
258,16,49,20.173,4023.24,0.692029,-0.04371,0.699698,-0.172069,-0.96287,0.18577,-0.02693,4020.12,0.40884,-0.079004,0.573556,-0.705438,-0.57146,0.79454,-0.31456,2.17,2.64,2.82,2.94,3.06,2.84,2.69,3.72,3.2,3.8,3.93,3.98,3.87,3.74,3.76,3546,14.775,60560.177,191.674347,1052.811035,-217.272263,1.19207017044242,2.16638948158641,2.40484476455322,14.900245,799.804504,152.119797,96.941093,1196.549194,-27.502619,"CRUZINT"
259,16,49,20.178,4023.26,0.69216,-0.043591,0.699498,-0.172386,-0.9752,0.18984,-0.01875,4020.14,0.407905,-0.086937,0.57232,-0.706049,-0.56018,0.78821,-0.33491,2.16,2.65,2.82,2.95,3.05,2.84,2.68,3.72,3.2,3.8,3.93,3.98,3.87,3.74,3.76,3547,14.779167,60560.181167,191.674347,1052.811035,-217.272263,1.19208273446496,2.16633747850282,2.40490196766149,14.910753,799.793945,152.13269,96.953629,1196.523682,-27.511894,"CRUZINT"
260,16,49,20.217,4023.28,0.692366,-0.043333,0.699295,-0.172448,-0.98413,0.17402,-0.00811,4020.16,0.406532,-0.095358,0.569886,-0.707721,-0.53095,0.69406,-0.33824,2.16,2.65,2.83,2.96,3.04,2.84,2.68,3.73,3.2,3.78,3.93,3.98,3.87,3.74,3.76,3556,14.816667,60560.218667,191.674347,1052.811035,-217.272263,1.19197283850736,2.16534925120454,2.40574800952929,15.066962,799.685547,152.131241,97.026802,1196.163574,-27.565437,"CRUZINT"
261,16,49,20.222,4023.3,0.692451,-0.043381,0.699279,-0.172157,-0.98052,0.16181,-0.02026,4020.18,0.404713,-0.104499,0.567646,-0.709271,-0.54785,0.63538,-0.30127,2.15,2.66,2.83,2.97,3.04,2.84,2.67,3.72,3.2,3.78,3.93,3.98,3.87,3.74,3.77,3557,14.820833,60560.222833,191.674347,1052.811035,-217.272263,1.19194901619723,2.16520272717263,2.4058682009301,15.077154,799.674011,152.128998,97.033997,1196.113037,-27.570568,"CRUZINT"
262,16,49,20.277,4023.32,0.692468,-0.043496,0.699223,-0.172291,-0.97063,0.16309,-0.01374,4020.2,0.402943,-0.113688,0.56652,-0.709765,-0.6002,0.66343,-0.27358,2.14,2.66,2.84,2.98,3.03,2.84,2.67,3.72,3.2,3.78,3.93,3.98,3.87,3.74,3.76,3570,14.875,60560.277,191.674347,1052.811035,-217.272263,1.19171064510684,2.16414423811941,2.40669024253853,15.273413,799.507751,152.049377,97.300911,1195.399658,-28.078159,"CRUZINT"
263,16,49,20.282,4023.34,0.692515,-0.043573,0.699159,-0.172338,-0.96784,0.17289,-0.01151,4020.22,0.401347,-0.122745,0.565831,-0.709711,-0.62432,0.70175,-0.29926,2.14,2.67,2.84,2.99,3.03,2.84,2.66,3.72,3.2,3.78,3.94,3.99,3.87,3.74,3.77,3572,14.883333,60560.285333,191.674347,1052.811035,-217.272263,1.19151252553189,2.163765898182,2.40690580997593,15.297828,799.499939,152.066696,97.296974,1195.254761,-28.127476,"CRUZINT"
264,16,49,20.287,4023.36,0.692474,-0.043485,0.699265,-0.172096,-0.96371,0.17289,-0.00539,4020.24,0.399652,-0.13243,0.564034,-0.710356,-0.58615,0.71395,-0.32563,2.13,2.67,2.84,3,3.02,2.84,2.66,3.72,3.2,3.78,3.94,3.99,3.87,3.74,3.77,3573,14.8875,60560.2895,191.674347,1052.811035,-217.272263,1.1914364277653,2.1635735076722,2.40703241532433,15.308605,799.48877,152.085861,97.303864,1195.176514,-28.15576,"CRUZINT"
265,16,49,20.313,4023.38,0.692692,-0.043185,0.699154,-0.171749,-0.96416,0.16961,-0.01294,4020.26,0.396973,-0.143265,0.561751,-0.711564,-0.52543,0.68989,-0.30129,2.13,2.67,2.85,3.01,3.01,2.84,2.66,3.72,3.2,3.78,3.94,3.99,3.87,3.74,3.77,3579,14.9125,60560.3145,191.674347,1052.811035,-217.272263,1.19099180998919,2.16264160063032,2.40759258140011,15.392905,799.396606,152.203415,97.423164,1194.641602,-28.509806,"CRUZINT"
266,16,49,20.318,4023.4,0.692848,-0.042976,0.699106,-0.171363,-0.96483,0.17092,-0.01864,4020.28,0.393344,-0.153471,0.55982,-0.712972,-0.61063,0.67013,-0.25387,2.12,2.68,2.85,3.02,3.01,2.84,2.65,3.72,3.2,3.77,3.94,4,3.87,3.74,3.77,3580,14.916667,60560.318667,191.674347,1052.811035,-217.272263,1.19097875492461,2.1625297326864,2.40768767961315,15.409605,799.379333,152.224289,97.466057,1194.548828,-28.585695,"CRUZINT"
267,16,49,20.353,4023.42,0.692983,-0.042838,0.69905,-0.171081,-0.97239,0.1784,-0.02279,4020.3,0.389175,-0.162608,0.558993,-0.713882,-0.69292,0.69599,-0.27642,2.12,2.68,2.86,3.02,3,2.84,2.65,3.72,3.2,3.77,3.94,4,3.86,3.74,3.77,3589,14.954167,60560.356167,191.674347,1052.811035,-217.272263,1.19084658268628,2.16087225055179,2.40913820653745,15.491864,799.27533,152.499557,97.816528,1193.626465,-29.104191,"CRUZINT"
268,16,49,20.358,4023.44,0.693123,-0.042719,0.698964,-0.170892,-0.97541,0.18319,-0.02717,4020.32,0.38473,-0.171215,0.559514,-0.713871,-0.66591,0.67235,-0.33595,2.11,2.68,2.86,3.03,2.99,2.84,2.65,3.72,3.2,3.77,3.95,4,3.86,3.75,3.77,3590,14.958333,60560.360333,191.674347,1052.811035,-217.272263,1.190767415642,2.16064738406073,2.4092924408988,15.494468,799.274841,152.529633,97.831512,1193.528809,-29.14543,"CRUZINT"
269,16,49,20.394,4023.46,0.693141,-0.042589,0.698882,-0.171191,-0.96047,0.18778,-0.02761,4020.34,0.380222,-0.180247,0.561014,-0.712885,-0.60796,0.63187,-0.36131,2.11,2.69,2.87,3.04,2.99,2.84,2.66,3.72,3.2,3.78,3.94,4.01,3.86,3.75,3.77,3599,14.995833,60560.397833,191.674347,1052.811035,-217.272263,1.19041769077388,2.15855979883671,2.41098956390814,15.57444,799.172791,152.798676,98.02375,1192.67981,-29.409086,"CRUZINT"
270,16,49,20.403,4023.48,0.693287,-0.042444,0.69881,-0.170928,-0.95464,0.1905,-0.02541,4020.36,0.375742,-0.189873,0.562323,-0.711729,-0.68204,0.62024,-0.33466,2.11,2.69,2.87,3.04,2.98,2.84,2.66,3.72,3.2,3.77,3.95,4.02,3.86,3.75,3.77,3601,15.004167,60560.406167,191.674347,1052.811035,-217.272263,1.19054758214864,2.15823274621289,2.41138328013295,15.602127,799.146729,152.849731,98.112503,1192.524048,-29.459917,"CRUZINT"
271,16,49,20.438,4023.5,0.693536,-0.04223,0.69868,-0.170504,-0.97266,0.18286,-0.02813,4020.38,0.371728,-0.199472,0.563248,-0.710479,-0.78836,0.62019,-0.32438,2.11,2.69,2.87,3.05,2.98,2.84,2.66,3.72,3.2,3.77,3.95,4.01,3.85,3.75,3.77,3609,15.0375,60560.4395,191.674347,1052.811035,-217.272263,1.19090258693459,2.15739946774363,2.41240275490011,15.706487,799.163086,152.924713,98.325493,1192.155273,-29.549788,"CRUZINT"
272,16,49,20.443,4023.52,0.693761,-0.042097,0.698527,-0.170245,-0.97717,0.16687,-0.0293,4020.4,0.368276,-0.209514,0.562315,-0.710126,-0.79965,0.64094,-0.34633,2.11,2.69,2.88,3.05,2.98,2.84,2.66,3.72,3.21,3.77,3.95,4.01,3.85,3.75,3.77,3610,15.041667,60560.443667,191.674347,1052.811035,-217.272263,1.19093887395533,2.1573096568538,2.41251123555154,15.723523,799.167114,152.932709,98.344505,1192.120728,-29.552771,"CRUZINT"
273,16,49,20.473,4023.54,0.693957,-0.042093,0.698357,-0.170146,-0.96711,0.1762,-0.02114,4020.42,0.364942,-0.22048,0.559288,-0.710917,-0.71526,0.65677,-0.35008,2.11,2.69,2.88,3.06,2.98,2.84,2.66,3.72,3.21,3.78,3.95,4.01,3.84,3.75,3.77,3618,15.075,60560.477,191.674347,1052.811035,-217.272263,1.19112743940258,2.15662035173943,2.41328132909806,15.89109,799.195007,153.0336,98.418694,1191.931274,-29.484322,"CRUZINT"
274,16,49,20.479,4023.56,0.69416,-0.041887,0.698218,-0.16994,-0.9615,0.18089,-0.01507,4020.44,0.361102,-0.232163,0.554836,-0.712645,-0.66445,0.6314,-0.32663,2.11,2.69,2.88,3.06,2.97,2.84,2.66,3.72,3.2,3.78,3.96,4.01,3.84,3.75,3.77,3619,15.079167,60560.481167,191.674347,1052.811035,-217.272263,1.19118413808314,2.15653892232543,2.41339613531556,15.912265,799.200806,153.051529,98.440056,1191.9021,-29.481432,"CRUZINT"
275,16,49,20.517,4023.58,0.694527,-0.0415,0.697981,-0.169508,-0.97625,0.16659,-0.01266,4020.46,0.356811,-0.243973,0.549577,-0.714932,-0.68881,0.58029,-0.27917,2.11,2.69,2.89,3.06,2.97,2.84,2.67,3.73,3.2,3.78,3.96,4.01,3.84,3.75,3.77,3628,15.116667,60560.518667,191.674347,1052.811035,-217.272263,1.19173773037088,2.15605338037236,2.41422976444588,16.161644,799.177673,153.153229,98.715805,1191.581787,-29.637342,"CRUZINT"
276,16,49,20.522,4023.6,0.694831,-0.041319,0.69779,-0.16909,-0.98919,0.16033,-0.01972,4020.48,0.352786,-0.25563,0.544032,-0.717094,-0.76986,0.54925,-0.28034,2.1,2.69,2.89,3.07,2.97,2.85,2.67,3.73,3.2,3.79,3.97,4.01,3.84,3.76,3.77,3629,15.120833,60560.522833,191.674347,1052.811035,-217.272263,1.19177079270822,2.1560273891535,2.41427674861582,16.184902,799.176636,153.156921,98.73999,1191.551758,-29.662741,"CRUZINT"
277,16,49,20.553,4023.62,0.69499,-0.041429,0.697607,-0.169165,-0.97238,0.1773,-0.02096,4020.5,0.349213,-0.267442,0.539327,-0.718088,-0.78976,0.54696,-0.30021,2.1,2.69,2.89,3.07,2.96,2.85,2.68,3.73,3.21,3.79,3.97,4.02,3.84,3.75,3.77,3637,15.154167,60560.556167,191.674347,1052.811035,-217.272263,1.19170371989486,2.15544669658576,2.41476862152513,16.326517,799.252502,153.216995,98.82206,1191.284424,-29.77795,"CRUZINT"
278,16,49,20.558,4023.64,0.695073,-0.041583,0.697484,-0.169292,-0.95496,0.18926,-0.02311,4020.52,0.34637,-0.278869,0.535719,-0.71782,-0.747,0.51789,-0.30411,2.1,2.7,2.9,3.08,2.96,2.85,2.69,3.73,3.21,3.8,3.97,4.02,3.84,3.75,3.77,3638,15.158333,60560.560333,191.674347,1052.811035,-217.272263,1.19172916670119,2.155370496808,2.41485686203131,16.351871,799.248352,153.230545,98.838501,1191.252808,-29.784464,"CRUZINT"
279,16,49,20.594,4023.66,0.695058,-0.041481,0.697529,-0.169196,-0.9605,0.17815,-0.01793,4020.54,0.343642,-0.290657,0.531735,-0.717417,-0.72219,0.50942,-0.27698,2.09,2.7,2.9,3.08,2.96,2.85,2.7,3.73,3.21,3.8,3.98,4.02,3.83,3.76,3.77,3647,15.195833,60560.597833,191.674347,1052.811035,-217.272263,1.19240965688171,2.15521789421182,2.41546911097257,16.537914,799.255981,153.31044,99.193405,1190.927734,-30.079752,"CRUZINT"
280,16,49,20.599,4023.68,0.69527,-0.041386,0.697376,-0.168981,-0.97864,0.16391,-0.02598,4020.56,0.340453,-0.303046,0.526608,-0.717592,-0.79213,0.52621,-0.26205,2.09,2.7,2.9,3.08,2.96,2.86,2.71,3.74,3.21,3.81,3.98,4.01,3.83,3.76,3.76,3648,15.2,60560.602,191.674347,1052.811035,-217.272263,1.19246147160684,2.15520212100389,2.41551955423925,16.548788,799.261841,153.313202,99.230469,1190.887085,-30.122,"CRUZINT"
281,16,49,20.634,4023.7,0.695306,-0.041674,0.697295,-0.169091,-0.97743,0.16464,-0.02822,4020.58,0.337039,-0.315524,0.521088,-0.717856,-0.87001,0.54705,-0.29042,2.09,2.71,2.91,3.09,2.96,2.86,2.71,3.75,3.21,3.81,3.99,4.01,3.82,3.76,3.76,3656,15.233333,60560.635333,191.674347,1052.811035,-217.272263,1.19206306871864,2.15488926653277,2.41553391212871,16.631273,799.301636,153.318466,99.350868,1190.504028,-30.550501,"CRUZINT"
282,16,49,20.639,4023.72,0.695408,-0.041938,0.69713,-0.169291,-0.96603,0.17855,-0.02783,4020.6,0.334703,-0.326601,0.516318,-0.717441,-0.85629,0.51991,-0.33004,2.08,2.71,2.91,3.09,2.96,2.87,2.72,3.75,3.21,3.81,3.99,4.01,3.82,3.76,3.76,3657,15.2375,60560.6395,191.674347,1052.811035,-217.272263,1.19202825786552,2.1548453937406,2.41555047386263,16.638821,799.310974,153.327347,99.364578,1190.462402,-30.591814,"CRUZINT"
283,16,49,20.674,4023.74,0.695515,-0.042073,0.696994,-0.169375,-0.9616,0.17815,-0.02631,4020.62,0.332463,-0.337028,0.511645,-0.717008,-0.77084,0.4653,-0.32342,2.08,2.71,2.91,3.09,2.96,2.88,2.74,3.75,3.21,3.82,3.99,4,3.82,3.77,3.76,3666,15.275,60560.677,191.674347,1052.811035,-217.272263,1.19219996891257,2.15463367807372,2.41586543159011,16.717049,799.31311,153.355255,99.62899,1190.083374,-30.994127,"CRUZINT"
284,16,49,20.68,4023.76,0.695766,-0.042037,0.696803,-0.16914,-0.97196,0.16696,-0.02787,4020.64,0.329652,-0.347986,0.505903,-0.717146,-0.76784,0.47878,-0.26842,2.08,2.71,2.91,3.1,2.97,2.88,2.75,3.75,3.21,3.82,3.99,4,3.81,3.77,3.75,3667,15.279167,60560.681167,191.674347,1052.811035,-217.272263,1.19217961548502,2.15458376655548,2.41589758938003,16.724306,799.310791,153.352615,99.657356,1190.023682,-31.055748,"CRUZINT"
285,16,49,20.714,4023.78,0.695916,-0.042126,0.696656,-0.169107,-0.97377,0.16148,-0.02834,4020.66,0.325801,-0.35989,0.499515,-0.717508,-0.82867,0.52032,-0.23758,2.08,2.71,2.91,3.1,2.97,2.89,2.76,3.75,3.21,3.82,3.98,3.99,3.81,3.77,3.75,3675,15.3125,60560.7145,191.674347,1052.811035,-217.272263,1.19153716638713,2.15427051404116,2.41574297620086,16.745062,799.325745,153.305252,99.802116,1189.522095,-31.673904,"CRUZINT"
286,16,49,20.722,4023.8,0.69602,-0.042286,0.696486,-0.169338,-0.96661,0.17229,-0.03116,4020.68,0.321912,-0.370688,0.493785,-0.717732,-0.92521,0.52077,-0.26704,2.08,2.71,2.92,3.1,2.97,2.89,2.77,3.75,3.21,3.83,3.98,3.98,3.81,3.77,3.75,3677,15.320833,60560.722833,125.500366,1001.543152,-236.770416,1.47868467306433,2.30888011070651,2.39501669558706,16.750204,799.330078,153.287582,99.818489,1189.413696,-31.827215,"CRUZINT"
287,16,49,20.753,4023.82,0.696092,-0.042413,0.696353,-0.169557,-0.9654,0.17672,-0.02904,4020.7,0.319332,-0.378947,0.489783,-0.717314,-0.93,0.46798,-0.32778,2.08,2.71,2.92,3.1,2.97,2.9,2.78,3.75,3.21,3.83,3.99,3.98,3.82,3.77,3.75,3685,15.354167,60560.756167,121.146255,997.942383,-236.627319,1.49466159440133,2.32006175225448,2.38652908627025,16.790922,799.397705,153.259872,99.804916,1189.046509,-32.300278,"CRUZINT"
288,16,49,20.761,4023.84,0.69627,-0.042305,0.69618,-0.169565,-0.9681,0.17081,-0.02515,4020.72,0.317404,-0.385834,0.486692,-0.716601,-0.85039,0.36689,-0.34499,2.08,2.71,2.92,3.1,2.97,2.91,2.78,3.75,3.21,3.84,3.99,3.98,3.82,3.78,3.75,3687,15.3625,60560.7645,119.614716,997.402161,-237.099045,1.50018784136851,2.32074945459978,2.38665139872495,16.806536,799.416016,153.252228,99.787766,1188.956665,-32.418159,"CRUZINT"
