Sample,Hour,Minute,Sec,Stamp,Quat1,Quat2,Quat3,Quat4,AccX,AccY,AccZ,Stamp2,Quat2_1,Quat2_2,Quat2_3,Quat2_4,Acc2_X,Acc2_Y,Acc2_Z,A0,A1,A2,A3,A4,A5,A6,A7,A8,A9,A10,A11,A12,A13,A14,Frame,Time,realTime,BrazoX,BrazoY,BrazoZ,angBrazoX,angBrazoY,angBrazoZ,EspaldaX,EspaldaY,EspaldaZ,refX,refY,refZ,type
2,16,47,0.365,3883.3,0.699079,0.095106,0.707933,-0.032797,-0.96788,0.17519,0.01538,3880.18,0.197082,-0.606224,0.345483,-0.688689,-0.96218,0.22381,-0.03296,2.04,2.75,2.87,3.13,2.98,2.86,2.69,3.7,3.25,3.77,3.99,4.02,3.86,3.77,3.76,2115,8.8125,60420.3655,81.016731,961.085022,-210.536911,1.64526965111927,2.40925522898002,2.29756298086811,7.788492,788.319763,154.870453,103.079163,1181.581421,-13.512115,"CRUZINT"
3,16,47,0.374,3883.32,0.699029,0.09513,0.70798,-0.032758,-0.96763,0.17515,0.01536,3880.2,0.197312,-0.605874,0.345861,-0.688741,-0.96599,0.21901,-0.0388,2.04,2.76,2.88,3.14,2.98,2.86,2.69,3.71,3.25,3.78,3.99,4.02,3.86,3.76,3.76,2118,8.825,60420.378,81.332779,961.289246,-210.573669,1.6441600259773,2.40857099929681,2.29841260818229,7.786604,788.303284,154.904205,103.064804,1181.626831,-13.381351,"CRUZINT"
4,16,47,0.384,3883.34,0.698974,0.095123,0.708037,-0.032726,-0.96713,0.17442,0.0159,3880.22,0.197452,-0.605404,0.346552,-0.688767,-0.96624,0.22177,-0.0406,2.04,2.76,2.88,3.14,2.99,2.86,2.7,3.71,3.25,3.79,4,4.01,3.85,3.76,3.76,2120,8.833333,60420.386333,81.533051,961.396667,-210.602417,1.64347461032727,2.40819013721337,2.29889432809609,7.789339,788.291565,154.924561,103.062508,1181.65979,-13.30247,"CRUZINT"
5,16,47,0.392,3883.36,0.699031,0.09501,0.708,-0.032634,-0.9679,0.17367,0.0144,3880.24,0.197709,-0.604859,0.34741,-0.68874,-0.96697,0.22562,-0.03868,2.04,2.76,2.88,3.14,2.99,2.87,2.71,3.71,3.25,3.79,4,4.01,3.85,3.77,3.76,2122,8.841667,60420.394667,81.758896,961.508301,-210.622406,1.64264498333088,2.40778713321787,2.29941806236761,7.785184,788.278076,154.941895,103.043076,1181.692017,-13.206043,"CRUZINT"
6,16,47,0.401,3883.38,0.698975,0.094984,0.708061,-0.032585,-0.96819,0.17369,0.01639,3880.26,0.198068,-0.604346,0.348386,-0.688595,-0.96627,0.22878,-0.03564,2.04,2.76,2.88,3.14,2.99,2.87,2.71,3.72,3.25,3.8,4,4.01,3.85,3.77,3.76,2124,8.85,60420.403,82.00177,961.606689,-210.640106,1.64179987653922,2.40743350967488,2.29989316731831,7.787248,788.259033,154.954132,103.037064,1181.731079,-13.108883,"CRUZINT"
7,16,47,0.406,3883.4,0.698875,0.094955,0.708164,-0.032552,-0.96854,0.17437,0.01669,3880.28,0.198397,-0.603701,0.349545,-0.688478,-0.96554,0.23073,-0.04203,2.04,2.76,2.88,3.14,2.99,2.88,2.72,3.73,3.26,3.81,4.01,4.01,3.84,3.77,3.75,2125,8.854167,60420.407167,82.12912,961.675049,-210.656387,1.64135337967078,2.4071939461238,2.30019638534765,7.780468,788.257568,154.969604,103.032135,1181.749512,-13.060217,"CRUZINT"
8,16,47,0.412,3883.42,0.69881,0.094889,0.70824,-0.032516,-0.96831,0.17702,0.01611,3880.3,0.198844,-0.602857,0.350654,-0.688524,-0.96919,0.22752,-0.05359,2.04,2.76,2.88,3.15,2.99,2.88,2.73,3.74,3.26,3.82,4.01,4,3.84,3.77,3.75,2127,8.8625,60420.4155,82.406036,961.775146,-210.667297,1.64038773506989,2.40684608388957,2.30068034883405,7.779035,788.236877,154.976456,103.023567,1181.78186,-12.962919,"CRUZINT"
9,16,47,0.416,3883.44,0.698747,0.094807,0.708313,-0.032497,-0.96885,0.17554,0.01627,3880.32,0.199367,-0.60184,0.351934,-0.68861,-0.96758,0.21953,-0.05964,2.04,2.77,2.88,3.15,2.99,2.9,2.74,3.75,3.26,3.84,4.01,4,3.83,3.77,3.75,2128,8.866667,60420.419667,82.55867,961.819153,-210.665146,1.63985238576372,2.40672588831006,2.30087511192062,7.777347,788.237,154.979675,103.017647,1181.799805,-12.919684,"CRUZINT"
10,16,47,0.421,3883.46,0.698708,0.094714,0.708366,-0.032462,-0.96863,0.17399,0.01611,3880.34,0.200179,-0.600575,0.353295,-0.688782,-0.96387,0.22388,-0.06219,2.04,2.77,2.89,3.15,3,2.91,2.76,3.75,3.26,3.84,4.01,4,3.83,3.77,3.75,2129,8.870833,60420.423833,82.695435,961.867615,-210.665344,1.63938933905502,2.40655901858089,2.30110607615028,7.774576,788.227539,154.9935,103.017181,1181.812256,-12.871409,"CRUZINT"
11,16,47,0.431,3883.48,0.698608,0.094648,0.708475,-0.032427,-0.96847,0.17433,0.0162,3880.36,0.201285,-0.599093,0.354633,-0.689063,-0.96,0.22963,-0.06466,2.04,2.77,2.89,3.15,3,2.92,2.78,3.75,3.25,3.85,4.01,3.99,3.83,3.77,3.75,2131,8.879167,60420.432167,82.957146,961.909485,-210.650711,1.63848693934547,2.40641161386245,2.30137697229486,7.766042,788.218201,154.995834,103.013168,1181.838135,-12.784963,"CRUZINT"
12,16,47,0.44,3883.5,0.698555,0.094539,0.708545,-0.032374,-0.96763,0.17388,0.01617,3880.38,0.202387,-0.597541,0.35597,-0.689398,-0.95325,0.22848,-0.06628,2.04,2.77,2.89,3.15,3,2.93,2.8,3.75,3.25,3.85,4.01,3.99,3.83,3.77,3.75,2133,8.8875,60420.4405,83.255127,961.981262,-210.631302,1.63750855255878,2.40622669202512,2.30169396027396,7.766353,788.199463,155.000092,103.020844,1181.863647,-12.704097,"CRUZINT"
13,16,47,0.447,3883.52,0.698479,0.094448,0.708632,-0.032357,-0.96723,0.17444,0.01812,3880.4,0.203495,-0.59592,0.357063,-0.689909,-0.94922,0.22928,-0.06595,2.04,2.77,2.89,3.15,3,2.94,2.81,3.76,3.25,3.87,4.01,3.99,3.83,3.78,3.75,2135,8.895833,60420.448833,83.561691,962.051819,-210.610001,1.63649950930288,2.4060483121141,2.30200651813364,7.758555,788.18689,155.00383,103.027611,1181.884399,-12.626699,"CRUZINT"
14,16,47,0.492,3883.54,0.698399,0.094363,0.708725,-0.032301,-0.9681,0.17282,0.01648,3880.42,0.204479,-0.594325,0.358035,-0.69049,-0.95095,0.23085,-0.0643,2.04,2.77,2.89,3.15,3,2.95,2.82,3.76,3.25,3.87,4.01,3.99,3.83,3.78,3.75,2146,8.941667,60420.494667,85.427429,962.245178,-210.586594,1.63056025794156,2.40535745648145,2.30344543261024,7.726589,788.130676,155.013351,103.137245,1181.956665,-12.271139,"CRUZINT"
15,16,47,0.498,3883.56,0.698317,0.094221,0.70883,-0.032195,-0.96791,0.17003,0.01801,3880.44,0.20561,-0.59263,0.359022,-0.691099,-0.95466,0.23598,-0.06559,2.04,2.77,2.89,3.15,3,2.96,2.83,3.76,3.25,3.87,4.01,3.99,3.84,3.78,3.75,2147,8.945833,60420.498833,85.623405,962.267273,-210.583801,1.62992938489788,2.40528050173862,2.30359769262442,7.725458,788.121643,155.013641,103.145866,1181.955566,-12.241893,"CRUZINT"
16,16,47,0.516,3883.58,0.698236,0.094219,0.708915,-0.032077,-0.97072,0.16877,0.01918,3880.46,0.206942,-0.590767,0.360114,-0.691728,-0.94983,0.24105,-0.06541,2.05,2.77,2.89,3.15,3.01,2.97,2.83,3.77,3.25,3.88,4.01,3.98,3.84,3.78,3.75,2152,8.966667,60420.519667,86.560593,962.386902,-210.604309,1.62703055810995,2.40484214982028,2.30437185737864,7.707037,788.098877,154.991348,103.223839,1181.972656,-12.105618,"CRUZINT"
17,16,47,0.521,3883.6,0.698183,0.094217,0.708977,-0.031871,-0.97015,0.17076,0.01911,3880.48,0.208219,-0.588875,0.361413,-0.69228,-0.94552,0.23947,-0.06267,2.05,2.77,2.89,3.15,3.01,2.98,2.84,3.77,3.25,3.89,4.01,3.98,3.84,3.78,3.75,2153,8.970833,60420.523833,86.758598,962.433838,-210.611862,1.62647242118122,2.40468947556017,2.30458729413836,7.708085,788.098511,154.994019,103.255333,1181.971924,-12.081335,"CRUZINT"
18,16,47,0.556,3883.62,0.698103,0.094256,0.709058,-0.03168,-0.96941,0.17142,0.01951,3880.5,0.209528,-0.587016,0.362842,-0.692716,-0.94753,0.23683,-0.05682,2.05,2.77,2.89,3.15,3.01,2.98,2.84,3.78,3.24,3.89,4.01,3.98,3.84,3.79,3.75,2161,9.004167,60420.557167,89.088974,963.117615,-210.888397,1.61928179731888,2.40249395185816,2.30753539650899,7.69488,788.06311,154.976028,103.441658,1181.984863,-11.921438,"CRUZINT"
19,16,47,0.561,3883.64,0.698018,0.094341,0.709141,-0.031462,-0.96878,0.17036,0.018,3880.52,0.210885,-0.585235,0.364312,-0.69304,-0.95049,0.24201,-0.05539,2.05,2.77,2.89,3.15,3.01,2.99,2.85,3.78,3.24,3.9,4.01,3.98,3.84,3.79,3.74,2162,9.008333,60420.561333,89.288925,963.148132,-210.90918,1.61869999279428,2.40236858859149,2.30771707341253,7.693443,788.060425,154.96936,103.469048,1181.983154,-11.908938,"CRUZINT"
20,16,47,0.594,3883.66,0.697916,0.094411,0.709243,-0.031217,-0.96906,0.16917,0.01948,3880.54,0.212188,-0.583627,0.365604,-0.693317,-0.94332,0.24561,-0.05676,2.05,2.77,2.89,3.15,3.01,3,2.86,3.79,3.24,3.91,4.01,3.97,3.84,3.79,3.75,2170,9.041667,60420.594667,90.789299,963.275452,-210.988907,1.61444450459877,2.40188998485683,2.30858672291046,7.689705,788.035278,154.946091,103.709869,1182.00293,-11.808991,"CRUZINT"
21,16,47,0.614,3883.68,0.697843,0.094507,0.70931,-0.031038,-0.96919,0.17158,0.02114,3880.56,0.213465,-0.582125,0.366798,-0.693558,-0.95379,0.24323,-0.06114,2.06,2.77,2.89,3.15,3.01,3.01,2.87,3.79,3.24,3.91,4.01,3.97,3.84,3.79,3.74,2175,9.0625,60420.6155,91.763939,963.365784,-211.053299,1.6117204961633,2.40156490991851,2.30914304240675,7.690584,788.030334,154.915176,103.878418,1182.024658,-11.754899,"CRUZINT"
22,16,47,0.619,3883.7,0.697792,0.09463,0.709353,-0.030816,-0.96852,0.1714,0.01903,3880.58,0.214729,-0.580652,0.368074,-0.693726,-0.9536,0.24173,-0.06285,2.06,2.76,2.89,3.14,3.01,3.01,2.88,3.79,3.24,3.91,4.01,3.97,3.85,3.79,3.75,2176,9.066667,60420.619667,91.957947,963.374756,-211.062927,1.61115201727895,2.40150959577451,2.30924473323205,7.686893,788.029602,154.905411,103.904282,1182.023438,-11.741481,"CRUZINT"
23,16,47,0.669,3883.72,0.697753,0.0948,0.709379,-0.030579,-0.96807,0.17149,0.02162,3880.6,0.216019,-0.579307,0.369238,-0.693832,-0.95183,0.24379,-0.05788,2.06,2.76,2.89,3.14,3.02,3.01,2.89,3.79,3.24,3.92,4.01,3.97,3.85,3.79,3.74,2188,9.116667,60420.669667,93.926201,963.532166,-211.076797,1.60557620229057,2.40107332052923,2.31010148677494,7.694998,788.045288,154.843262,104.221664,1182.072388,-11.587282,"CRUZINT"
24,16,47,0.674,3883.74,0.697715,0.094951,0.709405,-0.030369,-0.97105,0.16891,0.01953,3880.62,0.217187,-0.57805,0.370307,-0.693946,-0.95919,0.24236,-0.05317,2.07,2.76,2.89,3.14,3.02,3.01,2.89,3.8,3.24,3.92,4.01,3.96,3.85,3.79,3.74,2190,9.125,60420.678,94.221245,963.563843,-211.079453,1.6047575543159,2.40098005219151,2.31025124471624,7.703401,788.044373,154.82785,104.274025,1182.075806,-11.565966,"CRUZINT"
25,16,47,0.694,3883.76,0.697702,0.095122,0.709406,-0.030102,-0.9721,0.1695,0.01937,3880.64,0.218358,-0.576863,0.371284,-0.694044,-0.94102,0.24332,-0.05682,2.07,2.76,2.89,3.14,3.02,3.01,2.9,3.8,3.24,3.92,4.02,3.96,3.85,3.8,3.74,2194,9.141667,60420.694667,94.82254,963.621582,-211.088058,1.603019666984,2.40078232205015,2.3105644352398,7.714633,788.042175,154.810181,104.361137,1182.095459,-11.504777,"CRUZINT"
26,16,47,0.714,3883.78,0.697686,0.095302,0.70941,-0.029814,-0.97032,0.17247,0.02225,3880.66,0.219484,-0.575862,0.372097,-0.694084,-0.95093,0.24437,-0.05999,2.07,2.76,2.89,3.14,3.01,3.01,2.9,3.81,3.24,3.92,4.02,3.96,3.85,3.8,3.74,2199,9.1625,60420.7155,95.454163,963.679321,-211.066879,1.6012485513015,2.40061112443317,2.31084705697681,7.726344,788.035828,154.788376,104.468651,1182.119019,-11.421773,"CRUZINT"
27,16,47,0.719,3883.8,0.69768,0.095444,0.709408,-0.029566,-0.96943,0.17139,0.01904,3880.68,0.220536,-0.57492,0.372873,-0.694116,-0.94784,0.24486,-0.05666,2.07,2.75,2.89,3.14,3.02,3.01,2.9,3.81,3.23,3.92,4.02,3.96,3.85,3.8,3.74,2200,9.166667,60420.719667,95.579933,963.691406,-211.058334,1.60089533121675,2.40057004624647,2.31090960489643,7.724441,788.036133,154.786102,104.489784,1182.120239,-11.401981,"CRUZINT"
28,16,47,0.754,3883.82,0.697621,0.095608,0.709453,-0.029336,-0.96788,0.16976,0.02103,3880.7,0.22146,-0.574231,0.373438,-0.694088,-0.94636,0.24515,-0.05559,2.08,2.75,2.89,3.14,3.02,3.01,2.91,3.81,3.23,3.92,4.02,3.96,3.85,3.8,3.74,2209,9.204167,60420.757167,96.47747,963.740723,-210.98439,1.59847970527642,2.40042132442701,2.31119842239375,7.745422,788.025574,154.793533,104.672935,1182.152954,-11.252906,"CRUZINT"
29,16,47,0.775,3883.84,0.697586,0.09573,0.70948,-0.029123,-0.9672,0.17123,0.02005,3880.72,0.222296,-0.573565,0.374054,-0.69404,-0.9406,0.24323,-0.05528,2.08,2.75,2.89,3.14,3.02,3,2.91,3.81,3.23,3.92,4.02,3.96,3.86,3.8,3.74,2214,9.225,60420.778,96.843292,963.764709,-210.912506,1.59745406500688,2.40042558183365,2.31125009750111,7.757025,788.026184,154.820267,104.735336,1182.181641,-11.166207,"CRUZINT"
30,16,47,0.78,3883.86,0.69754,0.095858,0.709516,-0.028931,-0.96798,0.17097,0.01986,3880.74,0.223056,-0.573083,0.374615,-0.693892,-0.96021,0.2452,-0.05661,2.08,2.75,2.89,3.14,3.01,3,2.91,3.81,3.23,3.92,4.02,3.95,3.86,3.81,3.74,2215,9.229167,60420.782167,96.90654,963.765808,-210.899323,1.5972938310972,2.40039661991751,2.31128761083103,7.75243,788.025024,154.821365,104.751221,1182.178711,-11.143215,"CRUZINT"
31,16,47,0.831,3883.88,0.697506,0.095976,0.70954,-0.028754,-0.96934,0.17193,0.01922,3880.76,0.223768,-0.572752,0.374997,-0.693729,-0.94685,0.25208,-0.05539,2.09,2.74,2.88,3.13,3,3,2.91,3.81,3.23,3.92,4.02,3.95,3.86,3.81,3.74,2227,9.279167,60420.832167,96.901009,963.366394,-210.452194,1.5977956278252,2.40202687895501,2.30963019424219,7.756251,788.026306,154.879883,104.898926,1182.233887,-10.941026,"CRUZINT"
32,16,47,0.837,3883.9,0.697534,0.096113,0.7095,-0.028616,-0.96847,0.17135,0.01917,3880.78,0.224299,-0.572499,0.375291,-0.693608,-0.94885,0.25326,-0.05425,2.1,2.73,2.88,3.13,3,3,2.92,3.82,3.23,3.93,4.02,3.95,3.86,3.81,3.74,2229,9.2875,60420.8405,96.912903,963.391846,-210.429932,1.59782691298169,2.40195715053618,2.30969823526979,7.761413,788.020569,154.892517,104.920052,1182.244507,-10.904691,"CRUZINT"
33,16,47,0.855,3883.92,0.697533,0.096126,0.709501,-0.028558,-0.96919,0.17151,0.01889,3880.8,0.224555,-0.572854,0.375185,-0.693289,-0.94679,0.25153,-0.05688,2.11,2.72,2.88,3.13,3,3,2.92,3.82,3.22,3.93,4.02,3.95,3.86,3.81,3.74,2233,9.304167,60420.857167,96.902847,963.417236,-210.383911,1.59790458981903,2.40193138352402,2.30971978427717,7.764441,788.02478,154.914902,104.932983,1182.264282,-10.854379,"CRUZINT"
34,16,47,0.861,3883.94,0.697523,0.096093,0.709517,-0.028521,-0.96931,0.16976,0.01822,3880.82,0.224641,-0.57291,0.375285,-0.693161,-0.94904,0.25037,-0.05868,2.12,2.72,2.88,3.12,3,2.99,2.92,3.82,3.22,3.93,4.02,3.95,3.86,3.81,3.74,2234,9.308333,60420.861333,97.32756,963.833862,-210.610977,1.59650352196095,2.40044382347466,2.31128180752133,7.776039,788.012878,154.92067,104.938835,1182.270996,-10.842607,"CRUZINT"
35,16,47,0.911,3883.96,0.697552,0.095984,0.709505,-0.028461,-0.96912,0.16886,0.02107,3880.84,0.224601,-0.573053,0.375266,-0.693066,-0.94955,0.25218,-0.06015,2.13,2.72,2.89,3.11,3,2.99,2.92,3.82,3.22,3.93,4.02,3.95,3.86,3.81,3.74,2246,9.358333,60420.911333,96.536781,963.509827,-210.294174,1.59921652433862,2.40160041302351,2.3099776758591,7.816686,787.987915,154.97908,104.955818,1182.300537,-10.699261,"CRUZINT"
36,16,47,0.916,3883.98,0.697527,0.09594,0.709537,-0.028438,-0.96873,0.16823,0.02063,3880.86,0.224452,-0.573407,0.375066,-0.69293,-0.94678,0.2538,-0.06276,2.14,2.71,2.89,3.11,3,2.99,2.93,3.82,3.22,3.93,4.02,3.95,3.86,3.81,3.74,2248,9.366667,60420.919667,96.459419,963.531799,-210.29335,1.59944337335397,2.40150954673456,2.31005556178482,7.822659,787.977478,154.985718,104.945419,1182.298706,-10.686539,"CRUZINT"
37,16,47,0.935,3884,0.697525,0.09584,0.709552,-0.028448,-0.96957,0.17003,0.0229,3880.88,0.224157,-0.573671,0.374991,-0.692847,-0.94788,0.25106,-0.06602,2.15,2.71,2.89,3.1,3.01,2.99,2.93,3.82,3.22,3.93,4.02,3.94,3.87,3.81,3.74,2252,9.383333,60420.936333,96.277031,963.557129,-210.296402,1.59997826807653,2.40138098187707,2.31015309941864,7.829272,787.983521,155.00061,104.921677,1182.304443,-10.662676,"CRUZINT"
38,16,47,0.94,3884.02,0.697509,0.095767,0.709576,-0.028486,-0.96749,0.16867,0.02037,3880.9,0.223831,-0.573987,0.374792,-0.692799,-0.94814,0.25091,-0.06852,2.15,2.71,2.89,3.09,3.01,2.99,2.93,3.82,3.22,3.93,4.02,3.94,3.87,3.81,3.74,2253,9.3875,60420.9405,96.677193,963.939392,-210.528427,1.59862462027344,2.3999578595406,2.3116538783916,7.827465,787.98938,155.009521,104.917564,1182.312378,-10.648516,"CRUZINT"
39,16,47,0.989,3884.04,0.697496,0.095706,0.709598,-0.028492,-0.9684,0.16956,0.02178,3880.92,0.223332,-0.574295,0.374623,-0.692796,-0.95016,0.25286,-0.06946,2.16,2.7,2.89,3.08,3.02,2.98,2.94,3.83,3.22,3.93,4.02,3.94,3.87,3.81,3.74,2265,9.4375,60420.9905,95.993835,964.00946,-210.534363,1.60066661343383,2.39960196257137,2.31189160696119,7.855892,787.990479,155.058609,104.838753,1182.312622,-10.601237,"CRUZINT"
40,16,47,0.995,3884.06,0.697568,0.095657,0.709534,-0.028467,-0.96882,0.16889,0.0195,3880.94,0.222748,-0.574603,0.374428,-0.692834,-0.95353,0.25213,-0.0712,2.17,2.7,2.89,3.07,3.03,2.99,2.94,3.82,3.22,3.93,4.02,3.94,3.87,3.82,3.74,2267,9.445833,60420.998833,95.868439,964.029541,-210.54071,1.60103732343853,2.39954360885846,2.31192761190001,7.859185,787.991394,155.069183,104.823196,1182.323486,-10.597463,"CRUZINT"
41,16,47,1.015,3884.08,0.697558,0.095574,0.709553,-0.028512,-0.97126,0.16849,0.02183,3880.96,0.222209,-0.574888,0.374108,-0.692943,-0.95222,0.2523,-0.07438,2.18,2.69,2.89,3.06,3.03,2.99,2.94,3.83,3.21,3.93,4.02,3.94,3.88,3.82,3.74,2271,9.4625,60421.0155,95.634735,964.06427,-210.564926,1.60167489478107,2.39941515826567,2.31201698698081,7.866929,787.997375,155.085846,104.778114,1182.329834,-10.6046,"CRUZINT"
42,16,47,1.02,3884.1,0.697585,0.09548,0.709536,-0.028597,-0.97149,0.17031,0.01922,3880.98,0.221549,-0.575189,0.373891,-0.693021,-0.95086,0.25244,-0.07608,2.19,2.68,2.89,3.05,3.04,2.99,2.95,3.83,3.21,3.93,4.02,3.94,3.88,3.82,3.74,2273,9.470833,60421.023833,95.520134,964.085876,-210.590042,1.60197877614281,2.39926884610492,2.31214440320535,7.87877,787.998596,155.095169,104.753677,1182.327148,-10.597303,"CRUZINT"
43,16,47,1.07,3884.12,0.69757,0.095403,0.709559,-0.028657,-0.96945,0.16793,0.02148,3881,0.22101,-0.575362,0.373675,-0.693166,-0.94767,0.25364,-0.07659,2.2,2.68,2.89,3.04,3.05,2.99,2.95,3.83,3.21,3.93,4.02,3.94,3.88,3.82,3.74,2285,9.520833,60421.073833,94.944351,964.176147,-210.737152,1.60349533957225,2.39883763520235,2.31247850247638,7.896778,788.002014,155.121201,104.626839,1182.331665,-10.670897,"CRUZINT"
44,16,47,1.075,3884.14,0.697566,0.095334,0.709568,-0.028747,-0.96884,0.16793,0.01876,3881.02,0.220379,-0.57555,0.373589,-0.693258,-0.94742,0.25035,-0.0768,2.21,2.67,2.89,3.03,3.05,2.99,2.95,3.83,3.21,3.93,4.02,3.94,3.88,3.82,3.74,2286,9.525,60421.078,94.894585,964.184509,-210.756531,1.60360930648943,2.39875534991047,2.31255331367525,7.893446,788.00415,155.120697,104.610718,1182.321533,-10.675785,"CRUZINT"
45,16,47,1.096,3884.16,0.69757,0.095239,0.709574,-0.028814,-0.96809,0.16783,0.02025,3881.04,0.219779,-0.575701,0.373498,-0.693372,-0.95039,0.24688,-0.07783,2.22,2.66,2.89,3.02,3.06,2.99,2.96,3.83,3.21,3.93,4.02,3.94,3.88,3.82,3.74,2291,9.545833,60421.098833,94.674934,964.222168,-210.840927,1.60410818629914,2.39853990482085,2.31273570976763,7.894737,788.006165,155.11467,104.538536,1182.311646,-10.72438,"CRUZINT"
46,16,47,1.101,3884.18,0.697564,0.095154,0.709587,-0.02893,-0.96938,0.16976,0.02026,3881.06,0.219466,-0.57575,0.373242,-0.693568,-0.951,0.24923,-0.07793,2.23,2.66,2.89,3,3.06,2.99,2.96,3.83,3.21,3.93,4.01,3.93,3.89,3.82,3.74,2292,9.55,60421.103,94.636665,964.227844,-210.860291,1.60418454235728,2.39848599672846,2.31278451976181,7.892736,788.000305,155.109497,104.522873,1182.306641,-10.732978,"CRUZINT"
47,16,47,1.135,3884.2,0.697563,0.094981,0.709609,-0.028984,-0.9707,0.16786,0.02061,3881.08,0.219015,-0.575856,0.373148,-0.693674,-0.94798,0.25298,-0.07905,2.24,2.65,2.88,2.99,3.07,2.99,2.96,3.83,3.21,3.93,4.02,3.94,3.89,3.82,3.74,2300,9.583333,60421.136333,94.34594,964.255737,-210.997391,1.6048079279073,2.39830779408943,2.31292061473377,7.884194,787.994629,155.08255,104.416199,1182.288818,-10.849555,"CRUZINT"
48,16,47,1.14,3884.22,0.69754,0.094935,0.709633,-0.029099,-0.97008,0.16708,0.01815,3881.1,0.218765,-0.575844,0.372781,-0.69396,-0.94924,0.25019,-0.0805,2.25,2.65,2.89,2.98,3.08,2.99,2.97,3.83,3.21,3.93,4.01,3.93,3.89,3.82,3.74,2301,9.5875,60421.1405,94.31588,964.25177,-211.013702,1.60490578058455,2.39831588219571,2.31290583930959,7.881421,787.997925,155.072174,104.415062,1182.285645,-10.86985,"CRUZINT"
49,16,47,1.173,3884.24,0.697522,0.094897,0.709652,-0.029196,-0.96938,0.16668,0.02124,3881.12,0.218361,-0.575888,0.372717,-0.694085,-0.95115,0.24627,-0.07947,2.25,2.64,2.88,2.97,3.08,2.99,2.97,3.83,3.21,3.93,4.01,3.93,3.89,3.82,3.74,2309,9.620833,60421.173833,94.150047,964.250854,-211.128632,1.60512852511074,2.398333201417,2.31287322618543,7.864727,787.995056,155.031174,104.314659,1182.277588,-11.001639,"CRUZINT"
50,16,47,1.195,3884.26,0.697525,0.094798,0.709661,-0.029228,-0.9696,0.16741,0.01927,3881.14,0.218088,-0.575913,0.372696,-0.694161,-0.94971,0.24639,-0.07549,2.26,2.63,2.88,2.96,3.09,2.99,2.97,3.83,3.21,3.93,4.01,3.93,3.89,3.83,3.74,2315,9.645833,60421.198833,93.382988,963.72998,-211.087555,1.60742904942643,2.39976087492133,2.31128148120993,7.852776,787.992981,154.999878,104.239433,1182.264404,-11.105239,"CRUZINT"
51,16,47,1.2,3884.28,0.69752,0.094813,0.70966,-0.029309,-0.97147,0.16762,0.02056,3881.16,0.218447,-0.575842,0.372088,-0.694434,-0.94857,0.24747,-0.07656,2.27,2.62,2.88,2.96,3.09,3,2.97,3.83,3.2,3.94,4.01,3.93,3.89,3.83,3.74,2316,9.65,60421.203,93.370346,963.732483,-211.103073,1.60742370880649,2.39974337521914,2.31129937757843,7.854184,787.985779,154.99321,104.224998,1182.259155,-11.120728,"CRUZINT"
52,16,47,1.235,3884.3,0.69751,0.094747,0.709677,-0.029347,-0.96875,0.16837,0.02028,3881.18,0.218361,-0.57587,0.372096,-0.694433,-0.94676,0.24941,-0.07664,2.28,2.62,2.88,2.95,3.1,3,2.98,3.84,3.2,3.93,4.01,3.93,3.9,3.83,3.74,2324,9.683333,60421.236333,93.300667,963.682556,-211.199051,1.60744534715674,2.39990117488916,2.31113994954549,7.833889,787.995728,154.953003,104.161499,1182.236206,-11.25582,"CRUZINT"
53,16,47,1.24,3884.32,0.697504,0.094789,0.709676,-0.0294,-0.96824,0.17018,0.02002,3881.2,0.21947,-0.575692,0.370568,-0.695048,-0.94929,0.24902,-0.07793,2.29,2.62,2.87,2.95,3.1,3,2.98,3.84,3.2,3.94,4.01,3.93,3.9,3.83,3.74,2325,9.6875,60421.2405,93.290459,963.682068,-211.216461,1.60740526282465,2.39989164442471,2.31115242811233,7.83611,787.991028,154.949875,104.139397,1182.233398,-11.270876,"CRUZINT"
54,16,47,1.276,3884.34,0.697486,0.094834,0.709684,-0.029465,-0.97011,0.16914,0.02014,3881.22,0.219449,-0.575697,0.370566,-0.695051,-0.94952,0.24566,-0.07713,2.29,2.61,2.87,2.94,3.11,3.01,2.98,3.84,3.2,3.93,4.01,3.93,3.9,3.83,3.73,2334,9.725,60421.278,93.261871,963.56842,-211.271362,1.6073493822241,2.40024517674142,2.3108029124176,7.824323,787.981262,154.917252,104.094566,1182.196777,-11.396557,"CRUZINT"
55,16,47,1.281,3884.36,0.69747,0.094915,0.709685,-0.029552,-0.97049,0.16985,0.02134,3881.24,0.219491,-0.575712,0.370547,-0.695036,-0.95049,0.2463,-0.07607,2.3,2.61,2.87,2.94,3.11,3.01,2.98,3.84,3.2,3.94,4.01,3.93,3.9,3.83,3.73,2335,9.729167,60421.282167,93.264137,963.562927,-211.278412,1.60734859517576,2.40027983108062,2.31076830746379,7.823807,787.975769,154.913651,104.096733,1182.200928,-11.408707,"CRUZINT"
56,16,47,1.331,3884.38,0.697452,0.09495,0.709696,-0.029631,-0.96941,0.16971,0.02096,3881.26,0.219918,-0.57575,0.37008,-0.695118,-0.95023,0.24799,-0.07577,2.3,2.6,2.87,2.93,3.12,3.01,2.98,3.84,3.2,3.94,4.01,3.93,3.9,3.83,3.73,2347,9.779167,60421.332167,93.282814,963.405151,-211.295761,1.6071179655424,2.40081871363857,2.31024615758893,7.81037,787.983826,154.89505,104.047302,1182.155273,-11.536469,"CRUZINT"
57,16,47,1.336,3884.4,0.697437,0.094958,0.709706,-0.029703,-0.96861,0.17045,0.0206,3881.28,0.220076,-0.575742,0.370086,-0.695072,-0.95009,0.24695,-0.07525,2.31,2.6,2.86,2.93,3.12,3.02,2.99,3.84,3.2,3.94,4.01,3.93,3.9,3.83,3.73,2348,9.783333,60421.336333,93.293404,963.392883,-211.296555,1.60709924202555,2.40085253347767,2.31021369396892,7.813336,787.984619,154.896133,104.05246,1182.1521,-11.542246,"CRUZINT"
58,16,47,1.356,3884.42,0.697423,0.094993,0.709713,-0.029771,-0.96849,0.17074,0.01953,3881.3,0.220514,-0.57569,0.369732,-0.695164,-0.94964,0.24758,-0.07514,2.32,2.59,2.86,2.93,3.12,3.02,2.99,3.84,3.2,3.94,4.01,3.93,3.9,3.83,3.73,2353,9.804167,60421.357167,93.328606,963.331665,-211.2836,1.60698124569613,2.4010932518216,2.30998150003126,7.820853,787.988098,154.88916,104.052444,1182.133667,-11.585047,"CRUZINT"
59,16,47,1.362,3884.44,0.697406,0.095028,0.709722,-0.029832,-0.96955,0.17128,0.01986,3881.32,0.220719,-0.575714,0.369702,-0.695095,-0.95037,0.24737,-0.07387,2.32,2.59,2.86,2.92,3.13,3.02,2.99,3.84,3.2,3.94,4.01,3.93,3.9,3.83,3.73,2355,9.8125,60421.3655,93.336876,963.310608,-211.283691,1.60695233841601,2.40117890931952,2.30989792028589,7.816851,787.989868,154.889374,104.052086,1182.128418,-11.604654,"CRUZINT"
60,16,47,1.394,3884.46,0.697394,0.095121,0.70972,-0.029874,-0.96887,0.17053,0.02161,3881.34,0.220922,-0.575731,0.369682,-0.695027,-0.95037,0.25023,-0.07427,2.32,2.59,2.85,2.92,3.13,3.02,2.99,3.85,3.2,3.94,4.01,3.93,3.9,3.83,3.73,2362,9.841667,60421.394667,93.381195,963.215149,-211.242889,1.60683387378507,2.40153254909523,2.30955277749256,7.834555,787.989319,154.896454,104.061287,1182.103149,-11.639945,"CRUZINT"
61,16,47,1.399,3884.48,0.69738,0.095152,0.709728,-0.029889,-0.96894,0.171,0.0207,3881.36,0.221316,-0.575727,0.369419,-0.695044,-0.94995,0.24941,-0.07453,2.33,2.58,2.85,2.92,3.13,3.02,2.99,3.85,3.2,3.94,4.01,3.93,3.9,3.83,3.73,2364,9.85,60421.403,93.392433,963.199951,-211.246323,1.60682556188015,2.4015766434942,2.30950927359478,7.834508,787.995178,154.905838,104.070267,1182.100952,-11.649095,"CRUZINT"
62,16,47,1.434,3884.5,0.697514,0.095252,0.709584,-0.029887,-0.96994,0.17114,0.02065,3881.38,0.221512,-0.575745,0.369425,-0.694964,-0.95035,0.24922,-0.07436,2.33,2.58,2.85,2.92,3.13,3.03,2.99,3.85,3.19,3.94,4,3.93,3.9,3.83,3.73,2372,9.883333,60421.436333,94.182228,963.600281,-211.351151,1.60435604299996,2.40049950347941,2.31075909625031,7.848298,787.995056,154.898224,104.118324,1182.062866,-11.683969,"CRUZINT"
63,16,47,1.454,3884.52,0.697521,0.095272,0.709572,-0.029924,-0.97009,0.17078,0.02082,3881.4,0.221774,-0.575823,0.369228,-0.69492,-0.95027,0.25124,-0.07181,2.33,2.58,2.84,2.92,3.13,3.03,3,3.85,3.19,3.94,4,3.93,3.9,3.83,3.73,2377,9.904167,60421.457167,94.231621,963.552979,-211.335297,1.60430504126229,2.40066157338008,2.31060042562047,7.854736,787.995239,154.900833,104.152878,1182.053589,-11.697675,"CRUZINT"
64,16,47,1.459,3884.54,0.697505,0.095281,0.709585,-0.029954,-0.96896,0.17069,0.02159,3881.42,0.221908,-0.575877,0.369251,-0.694821,-0.95187,0.25071,-0.07385,2.33,2.58,2.84,2.92,3.13,3.03,3,3.85,3.19,3.93,4,3.93,3.9,3.83,3.73,2378,9.908333,60421.461333,94.250122,963.55426,-211.333237,1.60428414081871,2.40065951679366,2.31060388767234,7.846701,787.996277,154.905975,104.164993,1182.050049,-11.698887,"CRUZINT"
65,16,47,1.494,3884.56,0.697613,0.095232,0.709488,-0.029902,-0.96891,0.17093,0.01948,3881.44,0.222022,-0.57592,0.369297,-0.694725,-0.95511,0.25106,-0.07467,2.34,2.58,2.84,2.91,3.14,3.03,3,3.85,3.19,3.94,4,3.93,3.9,3.84,3.73,2386,9.941667,60421.494667,94.344917,963.528137,-211.306137,1.60418331352684,2.40076004800632,2.31051010200557,7.833351,788.012329,154.90979,104.230087,1182.047119,-11.689469,"CRUZINT"
66,16,47,1.499,3884.58,0.697596,0.0953,0.709495,-0.029898,-0.96903,0.16963,0.01918,3881.46,0.222333,-0.575892,0.36912,-0.694742,-0.95469,0.24892,-0.0757,2.34,2.58,2.83,2.91,3.14,3.03,3,3.85,3.19,3.93,4.01,3.93,3.9,3.84,3.73,2388,9.95,60421.503,94.376823,963.532776,-211.30368,1.60414568759098,2.40076446726484,2.3105082015176,7.831992,788.01886,154.910843,104.250999,1182.055786,-11.684555,"CRUZINT"
67,16,47,1.533,3884.6,0.697616,0.095271,0.709482,-0.029862,-0.96889,0.1698,0.02028,3881.48,0.222416,-0.575921,0.369131,-0.694686,-0.95339,0.24979,-0.07312,2.34,2.58,2.83,2.91,3.14,3.03,3,3.85,3.19,3.93,4,3.93,3.9,3.83,3.73,2396,9.983333,60421.536333,94.480385,963.562073,-211.305161,1.60406562526766,2.40066909515973,2.31060894480527,7.838066,788.028931,154.902924,104.330772,1182.063965,-11.665878,"CRUZINT"
68,16,47,1.555,3884.62,0.69763,0.095309,0.709463,-0.029849,-0.96926,0.17004,0.01991,3881.5,0.222566,-0.575739,0.369271,-0.694714,-0.95101,0.25269,-0.07152,2.34,2.57,2.83,2.91,3.14,3.03,3,3.85,3.19,3.93,4,3.92,3.9,3.84,3.73,2401,10.004167,60421.557167,94.528702,963.593262,-211.308029,1.60404100096588,2.40058717124521,2.31069252859754,7.83834,788.03595,154.902039,104.371689,1182.076294,-11.652735,"CRUZINT"
69,16,47,1.56,3884.64,0.697658,0.095312,0.709435,-0.029861,-0.96973,0.16983,0.01939,3881.52,0.222595,-0.57572,0.369364,-0.694672,-0.95173,0.25333,-0.07164,2.35,2.57,2.82,2.91,3.14,3.04,3,3.85,3.19,3.93,4.01,3.92,3.9,3.84,3.73,2402,10.008333,60421.561333,94.535622,963.603271,-211.313095,1.60406938347531,2.40054822972111,2.31072958353233,7.840199,788.033569,154.896912,104.386887,1182.075806,-11.652176,"CRUZINT"
70,16,47,1.596,3884.66,0.697619,0.095194,0.709491,-0.029817,-0.97006,0.16992,0.02054,3881.54,0.222538,-0.575727,0.369449,-0.694639,-0.95077,0.25098,-0.07148,2.35,2.57,2.82,2.91,3.14,3.04,3,3.85,3.19,3.93,4.01,3.92,3.9,3.84,3.72,2411,10.045833,60421.598833,94.593681,963.676025,-211.358948,1.6040064465781,2.40025567151907,2.31102639838452,7.864083,788.046509,154.892059,104.426765,1182.099976,-11.624065,"CRUZINT"
71,16,47,1.601,3884.68,0.697637,0.095211,0.709471,-0.029812,-0.96985,0.16933,0.0196,3881.56,0.222504,-0.575751,0.369315,-0.694701,-0.94931,0.24895,-0.07207,2.35,2.57,2.82,2.91,3.14,3.04,3.01,3.85,3.19,3.93,4,3.92,3.9,3.84,3.73,2412,10.05,60421.603,94.59343,963.683899,-211.361038,1.60401608185381,2.40022009516529,2.31106133956846,7.867042,788.045166,154.895416,104.429535,1182.104492,-11.61508,"CRUZINT"
72,16,47,1.651,3884.7,0.697662,0.095139,0.709458,-0.029745,-0.96889,0.16964,0.02047,3881.58,0.222392,-0.575719,0.369369,-0.694735,-0.95082,0.24698,-0.0746,2.35,2.57,2.81,2.91,3.14,3.04,3.01,3.86,3.19,3.93,4.01,3.92,3.9,3.84,3.72,2424,10.1,60421.653,94.72036,963.807922,-211.394638,1.60370501334611,2.39983416878255,2.31146798008504,7.888152,788.066345,154.90126,104.463219,1182.125,-11.583875,"CRUZINT"
73,16,47,1.656,3884.72,0.697685,0.095169,0.709433,-0.029729,-0.96859,0.17003,0.02218,3881.6,0.222478,-0.575653,0.369354,-0.69477,-0.95377,0.24506,-0.07696,2.35,2.57,2.81,2.91,3.14,3.04,3.01,3.86,3.19,3.93,4.01,3.92,3.9,3.84,3.73,2425,10.104167,60421.657167,94.729538,963.817261,-211.396744,1.60367464188224,2.39980873603622,2.31149542234035,7.887972,788.074036,154.903717,104.463219,1182.125,-11.583875,"CRUZINT"
74,16,47,1.674,3884.74,0.697703,0.095178,0.709414,-0.029718,-0.96859,0.17058,0.01972,3881.62,0.222512,-0.575525,0.369568,-0.694751,-0.95536,0.24918,-0.07488,2.35,2.57,2.81,2.91,3.14,3.04,3.01,3.86,3.19,3.93,4.01,3.92,3.9,3.84,3.72,2430,10.125,60421.678,94.766243,963.870361,-211.401566,1.60377504436324,2.39958963214662,2.3117079345535,7.892763,788.074463,154.924484,104.530632,1182.156494,-11.521906,"CRUZINT"
75,16,47,1.695,3884.76,0.697756,0.095094,0.709378,-0.029616,-0.96994,0.16994,0.02021,3881.64,0.222527,-0.575442,0.369638,-0.694777,-0.94877,0.25514,-0.07333,2.36,2.57,2.8,2.91,3.14,3.04,3.01,3.86,3.18,3.93,4.01,3.92,3.9,3.84,3.73,2435,10.145833,60421.698833,94.80397,963.921448,-211.424286,1.60385332004028,2.39943726067208,2.3118551496765,7.899817,788.081421,154.939545,104.591583,1182.178345,-11.511308,"CRUZINT"
76,16,47,1.699,3884.78,0.697788,0.09509,0.709346,-0.029626,-0.96988,0.16915,0.01805,3881.66,0.222581,-0.575355,0.369591,-0.694858,-0.94683,0.253,-0.07232,2.36,2.57,2.8,2.91,3.14,3.04,3.01,3.86,3.18,3.93,4,3.92,3.9,3.84,3.72,2436,10.15,60421.703,94.812706,963.934204,-211.426971,1.60384444850538,2.3994506123339,2.31184238378286,7.903099,788.087463,154.934021,104.597412,1182.1875,-11.522528,"CRUZINT"
77,16,47,1.736,3884.8,0.697867,0.095098,0.709264,-0.029712,-0.96816,0.17306,0.01903,3881.68,0.222499,-0.575359,0.369674,-0.694836,-0.94925,0.24662,-0.07084,2.36,2.57,2.8,2.92,3.14,3.05,3.01,3.86,3.18,3.93,4,3.92,3.9,3.84,3.72,2444,10.183333,60421.736333,94.859291,964.002258,-211.464127,1.60404317501241,2.39922898992975,2.31205083237104,7.914736,788.131714,154.908096,104.703033,1182.216064,-11.509684,"CRUZINT"
78,16,47,1.743,3884.82,0.697881,0.095067,0.709252,-0.029763,-0.96809,0.17242,0.02026,3881.7,0.222464,-0.575575,0.369556,-0.694731,-0.94917,0.24643,-0.06808,2.36,2.56,2.79,2.92,3.14,3.05,3.01,3.86,3.18,3.93,4,3.92,3.9,3.84,3.72,2446,10.191667,60421.744667,94.873116,964.017334,-211.474915,1.60405946331911,2.39921991578844,2.31205882150403,7.915809,788.142578,154.896667,104.721703,1182.229858,-11.518237,"CRUZINT"
79,16,47,1.777,3884.84,0.697918,0.095019,0.70922,-0.029835,-0.97028,0.16884,0.01908,3881.72,0.222476,-0.575648,0.369658,-0.694613,-0.95183,0.24805,-0.07024,2.36,2.56,2.79,2.92,3.14,3.05,3.01,3.86,3.18,3.93,4,3.92,3.9,3.84,3.73,2454,10.225,60421.778,94.90564,964.07959,-211.508423,1.60413263366667,2.39907253679745,2.3122013406345,7.935323,788.179016,154.86937,104.776169,1182.268921,-11.514828,"CRUZINT"
80,16,47,1.783,3884.86,0.697904,0.094769,0.709268,-0.029804,-0.97313,0.16661,0.02155,3881.74,0.222494,-0.575696,0.3697,-0.694545,-0.95056,0.24775,-0.07687,2.36,2.56,2.78,2.92,3.14,3.05,3.02,3.86,3.18,3.93,4.01,3.92,3.9,3.84,3.73,2456,10.233333,60421.786333,94.219528,963.602966,-211.362961,1.60645370776418,2.4004818884719,2.31063103406425,7.944101,788.185974,154.870087,104.78727,1182.286377,-11.518766,"CRUZINT"
81,16,47,1.829,3884.88,0.697955,0.094772,0.709218,-0.029787,-0.97219,0.16959,0.02037,3881.76,0.223292,-0.575103,0.369399,-0.69494,-0.94936,0.25026,-0.07739,2.36,2.56,2.78,2.93,3.14,3.05,3.02,3.86,3.18,3.93,4,3.92,3.9,3.84,3.73,2467,10.279167,60421.832167,94.280815,963.649109,-211.398743,1.60636467337225,2.40038830717054,2.31073099932832,7.971446,788.207092,154.835297,104.82206,1182.311279,-11.534959,"CRUZINT"
82,16,47,1.834,3884.9,0.698033,0.094716,0.709152,-0.029702,-0.96946,0.16975,0.02126,3881.78,0.223291,-0.575097,0.369452,-0.694918,-0.94734,0.24983,-0.07153,2.36,2.56,2.77,2.93,3.14,3.05,3.02,3.86,3.18,3.93,4,3.92,3.9,3.84,3.73,2468,10.283333,60421.836333,94.284088,963.657532,-211.408569,1.60636102926796,2.40035173754919,2.31076783736573,7.97156,788.208923,154.835358,104.824265,1182.312622,-11.536502,"CRUZINT"
83,16,47,1.854,3884.92,0.698054,0.094744,0.709128,-0.029697,-0.96795,0.1706,0.01807,3881.8,0.223191,-0.575354,0.369231,-0.694854,-0.9462,0.24775,-0.06738,2.37,2.56,2.77,2.93,3.14,3.05,3.02,3.86,3.18,3.93,4,3.93,3.9,3.84,3.73,2473,10.304167,60421.857167,94.965149,964.144348,-211.579361,1.60412216671063,2.39895063302872,2.31232396797479,7.965244,788.224365,154.841782,104.832809,1182.314331,-11.554342,"CRUZINT"
84,16,47,1.859,3884.94,0.69805,0.094753,0.70913,-0.029708,-0.96777,0.16956,0.01986,3881.82,0.223133,-0.575368,0.369261,-0.694845,-0.94679,0.24913,-0.06893,2.37,2.56,2.76,2.93,3.14,3.05,3.02,3.86,3.18,3.93,4,3.92,3.9,3.84,3.73,2474,10.308333,60421.861333,94.269478,963.640808,-211.431519,1.60642989442878,2.40038780417913,2.31072684324463,7.969517,788.22229,154.842758,104.830444,1182.311157,-11.561077,"CRUZINT"
85,16,47,1.895,3884.96,0.698141,0.094747,0.709042,-0.029697,-0.96795,0.16987,0.01712,3881.84,0.223036,-0.575392,0.369276,-0.694848,-0.95037,0.24927,-0.07228,2.37,2.56,2.76,2.94,3.14,3.05,3.02,3.86,3.18,3.93,4,3.92,3.9,3.84,3.73,2483,10.345833,60421.898833,94.931793,964.1474,-211.609985,1.60426288304992,2.39894421044788,2.31232096373929,7.959776,788.239807,154.869324,104.840912,1182.31189,-11.589479,"CRUZINT"
86,16,47,1.9,3884.98,0.698142,0.094773,0.709037,-0.029715,-0.96913,0.17106,0.01686,3881.86,0.222988,-0.575422,0.369213,-0.694872,-0.95278,0.25054,-0.07256,2.37,2.56,2.76,2.94,3.14,3.05,3.02,3.86,3.18,3.93,4,3.92,3.9,3.84,3.73,2484,10.35,60421.903,94.924271,964.144714,-211.614929,1.60427250140955,2.39892585791102,2.31233867397653,7.955498,788.242859,154.869156,104.836426,1182.309692,-11.586738,"CRUZINT"
87,16,47,1.935,3885,0.698239,0.094853,0.70893,-0.029727,-0.96898,0.17165,0.01576,3881.88,0.222895,-0.575434,0.369218,-0.694889,-0.95251,0.25042,-0.07014,2.37,2.56,2.75,2.94,3.14,3.05,3.02,3.86,3.18,3.93,4,3.92,3.9,3.84,3.73,2492,10.383333,60421.936333,94.857841,964.161743,-211.633255,1.60440937138221,2.39886008339767,2.31239525039862,7.932145,788.25708,154.880707,104.810532,1182.314087,-11.592214,"CRUZINT"
88,16,47,1.939,3885.02,0.698239,0.094859,0.708928,-0.029749,-0.96875,0.17125,0.01685,3881.9,0.222869,-0.575505,0.369016,-0.694946,-0.95067,0.24859,-0.07213,2.37,2.56,2.75,2.94,3.14,3.06,3.02,3.87,3.18,3.93,4,3.93,3.9,3.84,3.73,2493,10.3875,60421.9405,94.856995,964.162109,-211.633209,1.60440855308479,2.3988831060425,2.3123722784081,7.932625,788.248718,154.881393,104.809601,1182.32251,-11.594025,"CRUZINT"
89,16,47,1.989,3885.04,0.698243,0.094861,0.708922,-0.029795,-0.9687,0.16947,0.0178,3881.92,0.222793,-0.575541,0.369011,-0.694944,-0.94894,0.24782,-0.07134,2.37,2.56,2.75,2.94,3.14,3.06,3.02,3.86,3.18,3.93,4,3.93,3.9,3.84,3.73,2505,10.4375,60421.9905,94.767036,964.163208,-211.662537,1.60452545985386,2.39885654448926,2.31239094819124,7.908542,788.233521,154.875931,104.753723,1182.306885,-11.629733,"CRUZINT"
90,16,47,1.994,3885.06,0.698272,0.09476,0.708909,-0.029757,-0.96931,0.16877,0.01878,3881.94,0.222728,-0.575574,0.369028,-0.694928,-0.94894,0.24799,-0.07216,2.37,2.56,2.74,2.95,3.14,3.06,3.02,3.86,3.18,3.93,4,3.92,3.9,3.84,3.73,2506,10.441667,60421.994667,94.758133,964.157349,-211.666733,1.6045292619853,2.39885696174424,2.3123902735618,7.903878,788.234558,154.871368,104.746193,1182.306519,-11.629116,"CRUZINT"
91,16,47,2.014,3885.08,0.69828,0.094773,0.708899,-0.029766,-0.96878,0.16921,0.01904,3881.96,0.222894,-0.575534,0.368828,-0.695015,-0.94974,0.25077,-0.07157,2.37,2.56,2.74,2.95,3.13,3.06,3.02,3.86,3.18,3.93,4,3.92,3.9,3.84,3.73,2511,10.4625,60422.0155,94.70665,964.128906,-211.676788,1.60464053433087,2.39889715210507,2.31234253251018,7.902702,788.231201,154.875687,104.727768,1182.288818,-11.647128,"CRUZINT"
92,16,47,2.034,3885.1,0.698265,0.094755,0.708916,-0.029759,-0.96776,0.16886,0.01833,3881.98,0.22286,-0.575582,0.368836,-0.694981,-0.94669,0.25014,-0.07188,2.37,2.55,2.74,2.95,3.13,3.06,3.02,3.87,3.17,3.93,4,3.93,3.9,3.84,3.73,2516,10.483333,60422.036333,94.66996,964.091309,-211.680893,1.60471275004806,2.39899787258828,2.3122368833185,7.896408,788.227356,154.870209,104.712631,1182.275269,-11.670753,"CRUZINT"
93,16,47,2.039,3885.12,0.69823,0.094767,0.708947,-0.0298,-0.96812,0.1699,0.01798,3882,0.222958,-0.575759,0.368439,-0.695014,-0.95042,0.24629,-0.07452,2.37,2.55,2.74,2.95,3.13,3.06,3.02,3.86,3.18,3.93,4,3.93,3.9,3.84,3.73,2517,10.4875,60422.0405,94.658997,964.086731,-211.687073,1.60472077214827,2.39900555626501,2.31222865218067,7.894811,788.232239,154.875351,104.704025,1182.271851,-11.679078,"CRUZINT"
94,16,47,2.076,3885.14,0.698207,0.094777,0.708967,-0.029838,-0.96959,0.16942,0.02096,3882.02,0.222954,-0.575789,0.368408,-0.695007,-0.95126,0.24608,-0.07493,2.37,2.55,2.73,2.95,3.13,3.06,3.02,3.86,3.18,3.93,4,3.93,3.89,3.84,3.73,2526,10.525,60422.078,94.594009,964.027832,-211.690247,1.60479081312669,2.39918444861031,2.31204495177278,7.912323,788.231995,154.867004,104.659622,1182.245605,-11.725282,"CRUZINT"
95,16,47,2.081,3885.16,0.698218,0.094828,0.708948,-0.029869,-0.9694,0.17167,0.01883,3882.04,0.222973,-0.575818,0.368363,-0.695,-0.95108,0.25012,-0.07321,2.37,2.55,2.73,2.95,3.13,3.06,3.02,3.87,3.18,3.93,4,3.93,3.9,3.84,3.73,2527,10.529167,60422.082167,93.895218,963.550964,-211.541687,1.60709855642983,2.40054662362896,2.31051972707138,7.911709,788.222656,154.866226,104.653755,1182.242554,-11.726226,"CRUZINT"
96,16,47,2.114,3885.18,0.698202,0.094849,0.708961,-0.029869,-0.96885,0.16947,0.01843,3882.06,0.223078,-0.575826,0.368227,-0.695032,-0.94993,0.2508,-0.07106,2.37,2.55,2.73,2.95,3.13,3.06,3.02,3.86,3.18,3.93,4,3.93,3.9,3.84,3.73,2535,10.5625,60422.1155,94.502647,963.96405,-211.69072,1.60504160051233,2.39938677220174,2.31182541917391,7.91333,788.226501,154.854797,104.642906,1182.231323,-11.765477,"CRUZINT"
97,16,47,2.119,3885.2,0.69818,0.094864,0.708979,-0.02992,-0.96957,0.17078,0.02,3882.08,0.223033,-0.575917,0.36817,-0.695001,-0.94901,0.24787,-0.07054,2.38,2.55,2.73,2.95,3.13,3.06,3.02,3.86,3.18,3.93,4,3.92,3.89,3.84,3.73,2536,10.566667,60422.119667,94.497147,963.951965,-211.690582,1.60506054459861,2.3994165321245,2.31179435113518,7.91492,788.229858,154.850586,104.642952,1182.223877,-11.773335,"CRUZINT"
98,16,47,2.154,3885.22,0.698184,0.094859,0.708973,-0.029966,-0.96976,0.17137,0.01861,3882.1,0.223051,-0.576039,0.367993,-0.694988,-0.94737,0.24738,-0.07183,2.37,2.55,2.73,2.95,3.13,3.06,3.02,3.87,3.18,3.93,4,3.93,3.89,3.84,3.73,2545,10.604167,60422.157167,93.735695,963.404724,-211.562637,1.60758099206806,2.40097368461988,2.3100571848653,7.916034,788.221252,154.837982,104.637642,1182.191772,-11.839326,"CRUZINT"
99,16,47,2.159,3885.24,0.698176,0.094857,0.708979,-0.030017,-0.96898,0.16914,0.02061,3882.12,0.223058,-0.57615,0.367927,-0.694929,-0.95033,0.2463,-0.0734,2.37,2.55,2.73,2.95,3.13,3.06,3.02,3.86,3.18,3.93,4,3.93,3.89,3.84,3.73,2546,10.608333,60422.161333,93.719604,963.387268,-211.564499,1.60760735935518,2.40103222633394,2.30999668157077,7.91895,788.216003,154.842651,104.629539,1182.189575,-11.851202,"CRUZINT"
100,16,47,2.214,3885.26,0.698248,0.094824,0.708915,-0.02997,-0.96854,0.17004,0.01803,3882.14,0.223136,-0.576203,0.36792,-0.694864,-0.94967,0.24834,-0.07582,2.37,2.55,2.73,2.95,3.13,3.06,3.02,3.87,3.18,3.93,4,3.93,3.89,3.84,3.73,2559,10.6625,60422.2155,93.666122,963.235168,-211.58873,1.60780432769253,2.40142825892765,2.30958596005488,7.908546,788.218079,154.838837,104.634262,1182.11377,-11.968072,"CRUZINT"
101,16,47,2.219,3885.28,0.698231,0.094849,0.708927,-0.029988,-0.96936,0.17086,0.01833,3882.16,0.223375,-0.576151,0.367845,-0.694869,-0.9506,0.24779,-0.07601,2.37,2.55,2.73,2.95,3.13,3.06,3.02,3.87,3.18,3.93,4,3.93,3.89,3.84,3.73,2560,10.666667,60422.219667,94.325027,963.69928,-211.738892,1.60559509275448,2.40008844016223,2.31108526426931,7.913466,788.211792,154.838364,104.629181,1182.108398,-11.974115,"CRUZINT"
102,16,47,2.224,3885.3,0.698242,0.094896,0.70891,-0.029991,-0.96835,0.1701,0.01721,3882.18,0.223393,-0.576221,0.367816,-0.694821,-0.95108,0.24869,-0.07246,2.37,2.55,2.72,2.95,3.13,3.06,3.02,3.86,3.18,3.93,4,3.93,3.89,3.84,3.73,2562,10.675,60422.228,93.643425,963.197083,-211.594986,1.60785757553145,2.40152121109427,2.30948902664769,7.9137,788.209167,154.834778,104.627411,1182.095703,-11.994263,"CRUZINT"
103,16,47,2.256,3885.32,0.698215,0.094903,0.708934,-0.030048,-0.9692,0.17053,0.01887,3882.2,0.223576,-0.576238,0.367604,-0.69486,-0.9514,0.24906,-0.07291,2.37,2.55,2.72,2.95,3.13,3.06,3.02,3.87,3.18,3.93,4.01,3.93,3.89,3.84,3.73,2569,10.704167,60422.257167,93.603958,963.120789,-211.607788,1.60800786967331,2.40176579156836,2.30923318188752,7.913694,788.210327,154.82431,104.632759,1182.074097,-12.057858,"CRUZINT"
104,16,47,2.261,3885.34,0.698195,0.094916,0.70895,-0.030085,-0.9691,0.17004,0.01808,3882.22,0.223583,-0.576316,0.367613,-0.694789,-0.95159,0.24786,-0.07329,2.37,2.55,2.72,2.95,3.13,3.06,3.02,3.86,3.19,3.93,4.01,3.93,3.89,3.84,3.73,2570,10.708333,60422.261333,93.599983,963.112,-211.609848,1.60804763524838,2.40177835661225,2.3092176421744,7.906067,788.216431,154.822006,104.64045,1182.065552,-12.065391,"CRUZINT"
105,16,47,2.308,3885.36,0.698146,0.094957,0.708991,-0.030125,-0.96976,0.17174,0.01951,3882.24,0.223562,-0.576393,0.367603,-0.694737,-0.95002,0.24752,-0.0731,2.37,2.55,2.72,2.95,3.13,3.06,3.02,3.87,3.19,3.94,4.01,3.93,3.89,3.84,3.73,2582,10.758333,60422.311333,93.578522,962.973267,-211.64064,1.60824874562751,2.40211019990142,2.30887063555863,7.908536,788.207275,154.816711,104.678871,1181.999146,-12.166787,"CRUZINT"
106,16,47,2.313,3885.38,0.698136,0.094988,0.708996,-0.030136,-0.96953,0.17106,0.01855,3882.26,0.223644,-0.576448,0.367497,-0.694722,-0.95021,0.24815,-0.07274,2.37,2.55,2.72,2.95,3.13,3.06,3.02,3.86,3.19,3.94,4.01,3.93,3.89,3.84,3.73,2583,10.7625,60422.3155,93.576385,962.9646,-211.640259,1.60826270408722,2.40215664142738,2.3088231323148,7.905257,788.208862,154.815857,104.680931,1182.000977,-12.175713,"CRUZINT"
107,16,47,2.333,3885.4,0.698193,0.095005,0.70894,-0.030082,-0.96899,0.16928,0.01918,3882.28,0.223704,-0.576503,0.367567,-0.694619,-0.95208,0.2454,-0.07647,2.37,2.55,2.72,2.95,3.13,3.06,3.02,3.86,3.19,3.94,4.01,3.93,3.89,3.83,3.73,2588,10.783333,60422.336333,93.593002,962.914063,-211.650665,1.6082699798523,2.40225886165217,2.30872033788832,7.901103,788.210754,154.821793,104.699646,1181.969727,-12.209696,"CRUZINT"
108,16,47,2.355,3885.42,0.698187,0.095056,0.70894,-0.030073,-0.96861,0.1714,0.01796,3882.3,0.223884,-0.576477,0.367563,-0.694585,-0.95176,0.24601,-0.07462,2.37,2.55,2.72,2.95,3.13,3.06,3.02,3.86,3.19,3.94,4.01,3.93,3.89,3.84,3.73,2593,10.804167,60422.357167,93.595291,962.863831,-211.64386,1.60838098574643,2.40242999021812,2.30854080193038,7.899851,788.208679,154.81897,104.734879,1181.954834,-12.241218,"CRUZINT"
109,16,47,2.36,3885.44,0.698169,0.095058,0.708955,-0.030108,-0.96898,0.17142,0.01906,3882.32,0.22394,-0.576502,0.367593,-0.69453,-0.9525,0.24874,-0.07213,2.37,2.55,2.72,2.95,3.13,3.06,3.02,3.87,3.19,3.93,4.01,3.94,3.89,3.84,3.73,2594,10.808333,60422.361333,93.601273,962.853333,-211.648453,1.60839095473684,2.40245869593753,2.30851133636697,7.902967,788.205627,154.817474,104.743889,1181.951538,-12.250938,"CRUZINT"
110,16,47,2.395,3885.46,0.698229,0.094927,0.708917,-0.030043,-0.96856,0.17099,0.01892,3882.34,0.223949,-0.576565,0.367587,-0.694478,-0.95131,0.2484,-0.07056,2.37,2.55,2.72,2.95,3.13,3.06,3.02,3.86,3.19,3.94,4.01,3.93,3.89,3.83,3.73,2603,10.845833,60422.398833,93.58448,962.780457,-211.651932,1.60865543644017,2.40264116780914,2.30830878665149,7.915799,788.208557,154.804886,104.806145,1181.928711,-12.286474,"CRUZINT"
111,16,47,2.4,3885.48,0.698234,0.09494,0.708909,-0.030076,-0.96938,0.17058,0.01852,3882.36,0.224046,-0.576598,0.367515,-0.694457,-0.95095,0.24613,-0.07131,2.37,2.55,2.72,2.95,3.13,3.06,3.02,3.87,3.19,3.94,4.01,3.93,3.89,3.84,3.73,2604,10.85,60422.403,93.594772,962.778625,-211.639023,1.60863798786613,2.402664065154,2.30828720875928,7.913379,788.208069,154.802643,104.810715,1181.920654,-12.288122,"CRUZINT"
112,16,47,2.446,3885.5,0.698243,0.094819,0.708917,-0.03004,-0.96987,0.17024,0.01948,3882.38,0.224075,-0.576669,0.367556,-0.694367,-0.95265,0.245,-0.07256,2.37,2.55,2.72,2.95,3.13,3.06,3.02,3.87,3.19,3.94,4.01,3.93,3.88,3.84,3.73,2615,10.895833,60422.448833,93.62149,962.706848,-211.64209,1.60881515914754,2.40287066427997,2.30806706342893,7.937973,788.217285,154.794388,104.890228,1181.896118,-12.334049,"CRUZINT"
113,16,47,2.451,3885.52,0.698245,0.094842,0.708911,-0.030056,-0.97015,0.17008,0.01934,3882.4,0.224262,-0.57662,0.367599,-0.694325,-0.9507,0.24684,-0.07375,2.37,2.55,2.72,2.95,3.13,3.06,3.02,3.86,3.19,3.94,4.01,3.94,3.89,3.84,3.73,2616,10.9,60422.453,93.624969,962.704346,-211.645035,1.60885220242505,2.40288877457656,2.30804611968994,7.934072,788.22168,154.793472,104.904869,1181.900879,-12.338274,"CRUZINT"
114,16,47,2.473,3885.54,0.698237,0.094862,0.708917,-0.030044,-0.97042,0.171,0.01772,3882.42,0.22428,-0.576683,0.36764,-0.694245,-0.94983,0.24779,-0.07279,2.37,2.55,2.72,2.95,3.13,3.06,3.02,3.86,3.2,3.93,4.01,3.93,3.88,3.84,3.73,2621,10.920833,60422.473833,93.628204,962.659546,-211.634705,1.60897276675541,2.40300464584388,2.30792099137127,7.955432,788.222534,154.791931,104.944084,1181.884277,-12.350802,"CRUZINT"
115,16,47,2.497,3885.56,0.698166,0.094881,0.708983,-0.030075,-0.96858,0.172,0.02032,3882.44,0.224259,-0.576752,0.367648,-0.694191,-0.95063,0.24674,-0.07166,2.37,2.55,2.72,2.95,3.13,3.06,3.02,3.86,3.2,3.94,4.01,3.93,3.89,3.84,3.73,2627,10.945833,60422.498833,93.858269,962.692932,-211.528152,1.60839659347242,2.40322456631838,2.30774483386844,7.973156,788.224609,154.785522,104.99865,1181.867188,-12.368671,"CRUZINT"
116,16,47,2.502,3885.58,0.698162,0.094909,0.708983,-0.030073,-0.96735,0.17167,0.01786,3882.46,0.224285,-0.576853,0.367521,-0.694165,-0.94965,0.24533,-0.06965,2.37,2.55,2.72,2.95,3.13,3.06,3.02,3.86,3.2,3.94,4.01,3.93,3.88,3.84,3.73,2628,10.95,60422.503,93.856407,962.673157,-211.526337,1.60843236124007,2.40327855455023,2.30768812974932,7.976332,788.2229,154.791107,105.007584,1181.862183,-12.375665,"CRUZINT"
117,16,47,2.535,3885.6,0.698179,0.094876,0.708972,-0.030056,-0.96974,0.17118,0.01819,3882.48,0.224246,-0.576936,0.367526,-0.694106,-0.95279,0.24562,-0.07017,2.37,2.55,2.72,2.95,3.13,3.06,3.01,3.87,3.2,3.93,4.01,3.94,3.89,3.84,3.73,2636,10.983333,60422.536333,93.861755,962.626709,-211.507736,1.60864616641697,2.40340680205047,2.3075436466655,7.987251,788.230408,154.796204,105.076431,1181.844849,-12.385565,"CRUZINT"
118,16,47,2.54,3885.62,0.698179,0.094904,0.708969,-0.030041,-0.96966,0.17039,0.01955,3882.5,0.224312,-0.576953,0.367551,-0.694058,-0.95168,0.24698,-0.07157,2.37,2.55,2.72,2.95,3.13,3.06,3.01,3.86,3.2,3.93,4.01,3.93,3.89,3.84,3.73,2637,10.9875,60422.5405,93.863686,962.621765,-211.506302,1.60870985194512,2.403421722134,2.30752387911217,7.982894,788.230103,154.796494,105.097092,1181.840332,-12.390785,"CRUZINT"
119,16,47,2.591,3885.64,0.698171,0.094929,0.708973,-0.030045,-0.96903,0.17233,0.01869,3882.52,0.224279,-0.577021,0.367637,-0.693966,-0.95316,0.24465,-0.07138,2.37,2.55,2.72,2.95,3.13,3.06,3.01,3.86,3.2,3.94,4.01,3.93,3.89,3.84,3.73,2650,11.041667,60422.594667,93.919853,962.591125,-211.496658,1.60898578995174,2.40343827141319,2.30748624589519,8.009712,788.234802,154.79866,105.235733,1181.827637,-12.376101,"CRUZINT"
120,16,47,2.596,3885.66,0.698392,0.095038,0.708743,-0.02999,-0.96847,0.17086,0.01683,3882.54,0.224248,-0.577096,0.367699,-0.693881,-0.95347,0.24442,-0.07145,2.37,2.55,2.72,2.95,3.13,3.06,3.01,3.86,3.2,3.94,4.01,3.93,3.89,3.84,3.73,2651,11.045833,60422.598833,93.922638,962.593933,-211.494247,1.60901502289546,2.40341182863584,2.30751045404394,8.000284,788.239685,154.799133,105.247177,1181.825195,-12.368354,"CRUZINT"
121,16,47,2.615,3885.68,0.698393,0.095042,0.708742,-0.029989,-0.96763,0.17083,0.018,3882.56,0.22427,-0.577209,0.367677,-0.693792,-0.9521,0.24482,-0.06993,2.37,2.55,2.72,2.95,3.13,3.06,3.01,3.86,3.2,3.94,4.02,3.94,3.89,3.84,3.73,2655,11.0625,60422.6155,93.938469,962.586609,-211.471695,1.60914295544635,2.40342626456681,2.30748618180077,7.997766,788.251648,154.808685,105.301178,1181.826172,-12.346206,"CRUZINT"
122,16,47,2.621,3885.7,0.69844,0.095115,0.708685,-0.030001,-0.96992,0.17168,0.01873,3882.58,0.224279,-0.577271,0.367791,-0.693676,-0.95459,0.24651,-0.07307,2.37,2.55,2.72,2.95,3.13,3.06,3.01,3.86,3.2,3.93,4.01,3.93,3.89,3.84,3.73,2657,11.070833,60422.623833,93.95134,962.589783,-211.460861,1.60917071615701,2.40344258541633,2.30746771842689,8.001581,788.245422,154.811783,105.322235,1181.831909,-12.340054,"CRUZINT"
123,16,47,2.671,3885.72,0.698441,0.095087,0.708686,-0.030036,-0.96924,0.17113,0.01852,3882.6,0.224447,-0.577212,0.367891,-0.693618,-0.95579,0.24667,-0.07389,2.37,2.55,2.72,2.95,3.13,3.06,3.01,3.87,3.2,3.93,4.01,3.94,3.89,3.84,3.74,2669,11.120833,60422.673833,94.119392,962.689636,-211.440674,1.60923199899049,2.4030249001182,2.30788079758605,8.03371,788.236694,154.821808,105.50872,1181.853882,-12.224249,"CRUZINT"
124,16,47,2.676,3885.74,0.698439,0.095071,0.708689,-0.030071,-0.96884,0.17088,0.01861,3882.62,0.224544,-0.577214,0.36807,-0.693491,-0.95398,0.24625,-0.07091,2.37,2.55,2.72,2.95,3.13,3.06,3.01,3.86,3.2,3.93,4.01,3.94,3.89,3.84,3.73,2670,11.125,60422.678,94.137672,962.707458,-211.437836,1.60921609930473,2.40297773324994,2.30792920428749,8.028919,788.244507,154.817917,105.522095,1181.858521,-12.214216,"CRUZINT"
125,16,47,2.695,3885.76,0.698518,0.094891,0.708638,-0.030005,-0.96962,0.17069,0.01671,3882.64,0.224643,-0.57723,0.368272,-0.693338,-0.9534,0.24564,-0.07185,2.37,2.55,2.72,2.95,3.13,3.05,3.01,3.86,3.2,3.93,4.01,3.94,3.89,3.84,3.73,2675,11.145833,60422.698833,94.247925,962.764893,-211.417587,1.60914500872199,2.40280188288377,2.30811058172682,8.026166,788.255554,154.812912,105.611046,1181.876099,-12.158499,"CRUZINT"
126,16,47,2.7,3885.78,0.698514,0.094856,0.708644,-0.030063,-0.96889,0.17046,0.01794,3882.66,0.224903,-0.577128,0.368465,-0.693236,-0.95818,0.24332,-0.0767,2.37,2.55,2.73,2.95,3.13,3.05,3.01,3.86,3.2,3.93,4.01,3.94,3.89,3.84,3.73,2676,11.15,60422.703,94.273224,962.781128,-211.404755,1.60909410414954,2.4027697602157,2.30814662930659,8.028886,788.254395,154.812775,105.620956,1181.879883,-12.143251,"CRUZINT"
127,16,47,2.734,3885.8,0.698457,0.094804,0.708705,-0.030124,-0.96812,0.17011,0.01869,3882.68,0.225164,-0.576988,0.368746,-0.693118,-0.96455,0.24193,-0.0832,2.37,2.55,2.73,2.95,3.13,3.06,3.01,3.86,3.2,3.94,4.01,3.93,3.89,3.84,3.73,2684,11.183333,60422.736333,95.041389,963.358337,-211.54422,1.60690179613908,2.40099352631821,2.31008701238654,8.05195,788.240845,154.798615,105.732407,1181.950562,-11.995848,"CRUZINT"
128,16,47,2.739,3885.82,0.698475,0.094785,0.708689,-0.030127,-0.96894,0.17069,0.02058,3882.7,0.22572,-0.576703,0.368998,-0.69304,-0.97234,0.23917,-0.09297,2.37,2.55,2.73,2.95,3.13,3.06,3.01,3.86,3.2,3.93,4.01,3.94,3.89,3.84,3.74,2685,11.1875,60422.7405,94.653412,962.976013,-211.286392,1.60823012254786,2.40242299563709,2.30855915681197,8.055444,788.248718,154.799667,105.743179,1181.964355,-11.97189,"CRUZINT"
129,16,47,2.774,3885.84,0.698482,0.094738,0.708688,-0.030147,-0.96922,0.16982,0.01716,3882.72,0.226709,-0.576138,0.369609,-0.692862,-0.98363,0.23387,-0.10692,2.37,2.55,2.73,2.95,3.13,3.05,3.01,3.86,3.2,3.93,4.01,3.94,3.89,3.84,3.73,2694,11.225,60422.778,95.620804,963.394226,-211.171036,1.6050169283353,2.4017081797578,2.3095052143173,8.058213,788.263123,154.8414,105.756859,1182.192505,-11.692318,"CRUZINT"
130,16,47,2.779,3885.86,0.698547,0.094663,0.708636,-0.030115,-0.96859,0.1699,0.01826,3882.74,0.228605,-0.574956,0.370636,-0.692672,-0.97736,0.2331,-0.11176,2.37,2.56,2.73,2.94,3.14,3.06,3.01,3.86,3.2,3.93,4.01,3.94,3.89,3.84,3.73,2695,11.229167,60422.782167,96.220306,963.877319,-211.415817,1.60301375543441,2.40002671307272,2.31132056772288,8.062793,788.263794,154.846558,105.75795,1182.218384,-11.650562,"CRUZINT"
131,16,47,2.834,3885.88,0.698549,0.094623,0.70864,-0.030094,-0.96866,0.17001,0.01848,3882.76,0.231156,-0.573118,0.371986,-0.692625,-0.95396,0.24925,-0.10456,2.37,2.56,2.73,2.94,3.13,3.06,3.01,3.86,3.2,3.93,4.01,3.94,3.89,3.84,3.73,2708,11.283333,60422.836333,98.722542,964.458069,-211.497833,1.59425012873531,2.39813705225938,2.31369998171245,8.058854,788.257629,155.071869,105.668816,1182.497681,-11.142503,"CRUZINT"
132,16,47,2.839,3885.9,0.698552,0.094579,0.708642,-0.03011,-0.96828,0.17147,0.01829,3882.78,0.233874,-0.57073,0.373732,-0.692744,-0.94774,0.26029,-0.11019,2.37,2.56,2.73,2.94,3.14,3.06,3.01,3.86,3.2,3.93,4.01,3.94,3.89,3.84,3.73,2709,11.2875,60422.8405,98.968803,964.500488,-211.505554,1.59336413121631,2.39800278786791,2.31387516583817,8.057367,788.25177,155.090179,105.652748,1182.51416,-11.111111,"CRUZINT"
133,16,47,2.844,3885.92,0.698529,0.094459,0.708676,-0.030211,-0.96858,0.1729,0.01596,3882.8,0.23707,-0.567468,0.375833,-0.693201,-0.96474,0.23908,-0.13349,2.37,2.56,2.73,2.94,3.14,3.06,3.01,3.86,3.2,3.94,4.01,3.94,3.89,3.84,3.73,2710,11.291667,60422.844667,99.222336,964.54364,-211.515533,1.59245395841582,2.39784369224087,2.31407465815238,8.050776,788.249512,155.113953,105.636871,1182.529297,-11.074007,"CRUZINT"
134,16,47,2.873,3885.94,0.698509,0.094234,0.708716,-0.03046,-0.96835,0.17545,0.01475,3882.82,0.240702,-0.563658,0.37808,-0.693836,-0.97149,0.23725,-0.14472,2.37,2.56,2.73,2.94,3.14,3.05,3.01,3.86,3.2,3.94,4.01,3.94,3.89,3.84,3.73,2717,11.320833,60422.873833,101.420937,964.888916,-211.576935,1.58433963258572,2.39661750314536,2.31558746354643,8.046609,788.241028,155.264481,105.431793,1182.597168,-10.83462,"CRUZINT"
135,16,47,2.895,3885.96,0.698479,0.093998,0.708763,-0.030772,-0.96664,0.17538,0.01559,3882.84,0.244499,-0.559297,0.380606,-0.694655,-0.96638,0.25256,-0.14202,2.37,2.56,2.74,2.94,3.14,3.06,3.01,3.86,3.2,3.93,4.01,3.94,3.89,3.84,3.73,2723,11.345833,60422.898833,103.575264,965.341797,-211.60289,1.57626053772275,2.39527715436204,2.31708187720433,8.046595,788.216919,155.367447,105.192711,1182.670166,-10.637642,"CRUZINT"
136,16,47,2.9,3885.98,0.698443,0.093707,0.708823,-0.031086,-0.96753,0.17348,0.01564,3882.86,0.248368,-0.554233,0.383567,-0.695712,-0.98138,0.26896,-0.14629,2.37,2.56,2.74,2.94,3.14,3.06,3.01,3.86,3.2,3.93,4.01,3.94,3.89,3.84,3.73,2724,11.35,60422.903,103.979095,965.433838,-211.611099,1.57472343404797,2.39500549393801,2.31736801775863,8.05524,788.204895,155.381393,105.141434,1182.685791,-10.603852,"CRUZINT"
137,16,47,2.934,3886,0.698411,0.093411,0.708879,-0.031412,-0.9684,0.17181,0.01671,3882.88,0.252375,-0.548557,0.386873,-0.696937,-0.98387,0.27638,-0.16075,2.37,2.56,2.74,2.93,3.14,3.05,3.01,3.86,3.2,3.93,4.01,3.94,3.89,3.84,3.73,2732,11.383333,60422.936333,107.401497,966.397217,-211.681778,1.56166470089147,2.39228775029732,2.32001762758168,8.05143,788.154968,155.421707,104.701836,1182.855713,-10.328764,"CRUZINT"
138,16,47,2.955,3886.02,0.698351,0.093111,0.708967,-0.031656,-0.96948,0.17156,0.01801,3882.9,0.256687,-0.542243,0.390476,-0.698292,-0.98092,0.27972,-0.16891,2.37,2.56,2.74,2.93,3.14,3.06,3.01,3.86,3.2,3.93,4.01,3.94,3.89,3.84,3.73,2737,11.404167,60422.957167,109.885323,967.143127,-211.742142,1.55217287158375,2.39017341319172,2.32186796361748,8.037175,788.106384,155.397995,104.383827,1183.015503,-10.138224,"CRUZINT"
139,16,47,2.96,3886.04,0.698252,0.09286,0.709088,-0.031871,-0.96866,0.16649,0.01997,3882.92,0.261083,-0.53546,0.39428,-0.699758,-0.96505,0.27504,-0.17418,2.37,2.57,2.74,2.93,3.14,3.06,3.01,3.86,3.2,3.93,4.01,3.94,3.89,3.84,3.73,2738,11.408333,60422.961333,110.408356,967.303406,-211.766006,1.55015999838238,2.38967699107311,2.32228522295148,8.031406,788.093262,155.384995,104.313095,1183.04834,-10.097518,"CRUZINT"
140,16,47,2.995,3886.06,0.69811,0.092621,0.709253,-0.032001,-0.96858,0.16178,0.0195,3882.94,0.265554,-0.528236,0.398279,-0.7013,-0.95623,0.27522,-0.1763,2.36,2.57,2.74,2.93,3.14,3.06,3.01,3.86,3.2,3.94,4.01,3.94,3.89,3.84,3.73,2747,11.445833,60422.998833,114.957581,969.266357,-211.659241,1.53303452149475,2.38492078036646,2.32604044903186,7.967263,787.973206,155.271713,103.843185,1183.331177,-9.858605,"CRUZINT"
141,16,47,3.002,3886.08,0.697941,0.092493,0.709431,-0.032113,-0.9692,0.16134,0.02302,3882.96,0.270177,-0.52064,0.402576,-0.70276,-0.95762,0.27699,-0.17958,2.37,2.57,2.74,2.92,3.14,3.06,3.01,3.86,3.2,3.94,4.01,3.94,3.89,3.84,3.73,2748,11.45,60423.003,115.561607,969.510437,-211.693787,1.53078711915698,2.38419004195283,2.3265963978871,7.952953,787.955322,155.259613,103.789688,1183.361938,-9.83591,"CRUZINT"
142,16,47,3.034,3886.1,0.697769,0.092395,0.709614,-0.032075,-0.9692,0.16232,0.02011,3882.98,0.274998,-0.512696,0.406958,-0.704205,-0.94974,0.28116,-0.17496,2.37,2.57,2.74,2.92,3.14,3.06,3.01,3.86,3.2,3.93,4.01,3.94,3.89,3.84,3.73,2756,11.483333,60423.036333,119.516151,971.794128,-212.687241,1.51611942860955,2.37586260415873,2.33353710940074,7.809303,787.829895,155.146896,103.461693,1183.566406,-9.71959,"CRUZINT"
143,16,47,3.038,3886.12,0.697543,0.092471,0.70983,-0.032017,-0.96868,0.16223,0.01803,3883,0.279991,-0.504296,0.411556,-0.70563,-0.93733,0.29633,-0.18117,2.36,2.57,2.74,2.92,3.14,3.06,3.01,3.86,3.2,3.94,4.01,3.94,3.89,3.83,3.73,2757,11.4875,60423.0405,120.183556,972.041199,-212.703857,1.51370689964132,2.37513578210396,2.33399477190015,7.787438,787.815491,155.133469,103.427414,1183.590454,-9.710981,"CRUZINT"
144,16,47,3.088,3886.14,0.697311,0.09262,0.710043,-0.031909,-0.96786,0.16466,0.01653,3883.02,0.28485,-0.495486,0.416382,-0.707093,-0.9436,0.30627,-0.18963,2.37,2.57,2.75,2.92,3.14,3.06,3.01,3.86,3.2,3.94,4.01,3.94,3.89,3.84,3.73,2769,11.5375,60423.0905,129.551376,973.01825,-211.46814,1.47980163493105,2.37340259329611,2.33072156015491,7.449028,787.635315,154.931061,102.915192,1183.82605,-9.542727,"CRUZINT"
145,16,47,3.093,3886.16,0.697101,0.092819,0.710229,-0.031774,-0.96805,0.16673,0.01641,3883.04,0.289769,-0.485964,0.421565,-0.70863,-0.94556,0.31519,-0.2115,2.36,2.57,2.75,2.92,3.14,3.06,3.01,3.86,3.2,3.94,4.01,3.94,3.89,3.84,3.73,2770,11.541667,60423.094667,130.265259,973.321411,-211.453522,1.47713693471824,2.37245046288295,2.33118449141768,7.417183,787.606506,154.922821,102.86367,1183.84021,-9.520872,"CRUZINT"
146,16,47,3.114,3886.18,0.696873,0.093082,0.710425,-0.031623,-0.96969,0.16691,0.01725,3883.06,0.29484,-0.475655,0.427282,-0.710107,-0.95518,0.31192,-0.24009,2.36,2.57,2.75,2.92,3.14,3.06,3.01,3.86,3.2,3.94,4.01,3.94,3.89,3.84,3.73,2775,11.5625,60423.1155,134.155884,974.956482,-211.30838,1.46263366962092,2.36736331306948,2.33336505666499,7.264874,787.502197,154.887024,102.603058,1183.929321,-9.402721,"CRUZINT"
147,16,47,3.119,3886.2,0.696666,0.093386,0.710596,-0.031443,-0.97015,0.16833,0.01711,3883.08,0.300647,-0.464335,0.433666,-0.711294,-0.94833,0.31431,-0.25227,2.36,2.57,2.75,2.92,3.14,3.06,3.01,3.86,3.2,3.94,4.01,3.94,3.89,3.84,3.73,2776,11.566667,60423.119667,135.037384,975.348694,-211.284332,1.45935187803676,2.36609765327745,2.3339160711643,7.233158,787.4823,154.882355,102.549133,1183.947021,-9.374241,"CRUZINT"
148,16,47,3.155,3886.22,0.696412,0.093728,0.710808,-0.031264,-0.9683,0.16877,0.02009,3883.1,0.307079,-0.452337,0.440509,-0.712071,-0.92815,0.33472,-0.24691,2.36,2.57,2.75,2.92,3.14,3.06,3.01,3.86,3.2,3.94,4.01,3.94,3.89,3.84,3.73,2785,11.604167,60423.157167,142.628464,978.855774,-210.914597,1.43065853738072,2.35458512620465,2.33828964700914,6.995946,787.260071,154.889389,102.021095,1184.093384,-9.059315,"CRUZINT"
149,16,47,3.161,3886.24,0.696162,0.09409,0.711014,-0.031076,-0.96673,0.17048,0.01843,3883.12,0.312967,-0.440471,0.447051,-0.712869,-0.91542,0.34708,-0.23771,2.37,2.57,2.75,2.92,3.14,3.06,3.01,3.86,3.2,3.94,4.01,3.94,3.89,3.84,3.73,2786,11.608333,60423.161333,143.439117,979.263672,-210.856598,1.42759989761067,2.35327741989269,2.33874255529083,6.966336,787.234985,154.895706,101.975479,1184.113159,-9.023525,"CRUZINT"
150,16,47,3.194,3886.26,0.695886,0.094422,0.711245,-0.030947,-0.96502,0.17545,0.02035,3883.14,0.318343,-0.42865,0.452831,-0.714045,-0.92147,0.35475,-0.2384,2.37,2.57,2.75,2.92,3.14,3.06,3.01,3.86,3.2,3.93,4.01,3.94,3.89,3.84,3.73,2794,11.641667,60423.194667,150.063156,982.672607,-210.188095,1.40236900604694,2.34246101022115,2.34182373332166,6.759396,787.063477,154.886673,101.601357,1184.267822,-8.724971,"CRUZINT"
151,16,47,3.207,3886.28,0.695572,0.094681,0.711522,-0.030846,-0.96523,0.17897,0.02455,3883.16,0.323521,-0.416951,0.458277,-0.71517,-0.92114,0.36196,-0.24655,2.37,2.57,2.75,2.92,3.14,3.06,3.01,3.86,3.2,3.94,4.01,3.94,3.89,3.84,3.73,2797,11.654167,60423.207167,152.462341,983.968079,-209.827713,1.39312659042821,2.3385325238284,2.34261533320383,6.701798,786.99939,154.863312,101.470909,1184.345337,-8.604604,"CRUZINT"
152,16,47,3.236,3886.3,0.695249,0.094914,0.71181,-0.030755,-0.96814,0.17608,0.02666,3883.18,0.328795,-0.405228,0.463484,-0.716148,-0.91602,0.37275,-0.25392,2.37,2.57,2.75,2.92,3.14,3.06,3.01,3.86,3.2,3.94,4.01,3.94,3.89,3.84,3.73,2804,11.683333,60423.236333,158.302353,988.713806,-209.435425,1.3702191479622,2.323339798761,2.34933075443801,6.574962,786.897217,154.826797,101.216438,1184.553345,-8.22663,"CRUZINT"
153,16,47,3.24,3886.32,0.694897,0.095123,0.712131,-0.030651,-0.96978,0.17158,0.02734,3883.2,0.333882,-0.393557,0.468245,-0.717204,-0.89533,0.38489,-0.25705,2.37,2.57,2.75,2.92,3.14,3.06,3.01,3.86,3.2,3.94,4.02,3.94,3.89,3.84,3.73,2805,11.6875,60423.2405,159.05867,989.172607,-209.26178,1.36723187855786,2.32201878532953,2.34947413286761,6.566041,786.880188,154.821762,101.177475,1184.589722,-8.173938,"CRUZINT"
154,16,47,3.275,3886.34,0.694547,0.095354,0.712448,-0.030502,-0.97152,0.16877,0.03282,3883.22,0.338729,-0.381931,0.472741,-0.718267,-0.87054,0.40948,-0.25616,2.37,2.57,2.75,2.92,3.14,3.06,3.01,3.86,3.2,3.94,4.01,3.94,3.89,3.84,3.73,2814,11.725,60423.278,165.706863,993.461548,-207.797729,1.34101004109581,2.30915448877588,2.35128613716097,6.511005,786.731812,154.782028,100.932266,1184.875,-7.695413,"CRUZINT"
155,16,47,3.28,3886.36,0.694189,0.095547,0.712778,-0.03032,-0.97353,0.16978,0.03373,3883.24,0.343794,-0.370567,0.477235,-0.718841,-0.86476,0.43372,-0.26937,2.37,2.57,2.75,2.92,3.14,3.06,3.01,3.86,3.2,3.94,4.01,3.94,3.89,3.84,3.73,2815,11.729167,60423.282167,166.892441,994.093811,-207.831985,1.33659915941177,2.30647532032338,2.35197887473371,6.504704,786.714661,154.783539,100.910507,1184.904175,-7.630551,"CRUZINT"
156,16,47,3.328,3886.38,0.6938,0.095712,0.713142,-0.030167,-0.97236,0.17261,0.03755,3883.26,0.348045,-0.359225,0.481468,-0.71973,-0.86431,0.43949,-0.28542,2.37,2.57,2.75,2.92,3.15,3.06,3.01,3.86,3.2,3.94,4.01,3.94,3.89,3.84,3.73,2826,11.775,60423.328,174.733124,999.866821,-205.91684,1.30531597119799,2.28891091164994,2.35443568390067,6.490479,786.582825,154.739716,100.795891,1185.283081,-7.003386,"CRUZINT"
157,16,47,3.333,3886.4,0.693379,0.095832,0.713537,-0.030102,-0.96878,0.17545,0.03721,3883.28,0.351891,-0.348072,0.485825,-0.720412,-0.84521,0.42822,-0.28099,2.37,2.57,2.76,2.92,3.14,3.06,3.01,3.86,3.2,3.94,4.01,3.94,3.89,3.84,3.73,2828,11.783333,60423.336333,175.674713,1000.842102,-205.389847,1.30126078611181,2.28659835308959,2.35465906175543,6.497212,786.569153,154.724609,100.805229,1185.348511,-6.882181,"CRUZINT"
158,16,47,3.356,3886.42,0.692928,0.095923,0.713966,-0.030046,-0.96674,0.17484,0.03762,3883.3,0.35611,-0.336852,0.490402,-0.720571,-0.84108,0.47074,-0.27635,2.37,2.57,2.75,2.92,3.14,3.06,3.01,3.86,3.2,3.93,4.01,3.94,3.89,3.84,3.73,2833,11.804167,60423.357167,179.569153,1003.878479,-204.729996,1.28590398183805,2.27647838654109,2.35658188242644,6.495672,786.555054,154.672379,100.844887,1185.540527,-6.590152,"CRUZINT"
159,16,47,3.361,3886.44,0.692505,0.095974,0.714372,-0.029986,-0.96762,0.17303,0.0373,3883.32,0.359812,-0.325801,0.495079,-0.720615,-0.82108,0.46891,-0.27907,2.37,2.57,2.75,2.92,3.14,3.06,3.01,3.86,3.2,3.94,4.01,3.94,3.89,3.84,3.73,2834,11.808333,60423.361333,180.227509,1004.459351,-204.533157,1.28323202515862,2.27472776740005,2.3568624159157,6.496136,786.553711,154.664963,100.856606,1185.585083,-6.515756,"CRUZINT"
160,16,47,3.395,3886.46,0.692124,0.096029,0.714738,-0.029896,-0.97208,0.1702,0.03833,3883.34,0.362612,-0.315061,0.499616,-0.720856,-0.81553,0.47437,-0.28676,2.37,2.57,2.75,2.92,3.14,3.06,3.01,3.86,3.2,3.94,4.01,3.94,3.89,3.84,3.73,2843,11.845833,60423.398833,185.951721,1009.734375,-203.003815,1.26007745673427,2.25841394699184,2.35987412097861,6.499114,786.528992,154.546814,101.012863,1186.060547,-5.840167,"CRUZINT"
161,16,47,3.4,3886.48,0.69182,0.096095,0.715027,-0.029788,-0.97461,0.16949,0.03828,3883.36,0.365734,-0.304542,0.503972,-0.720767,-0.80404,0.47719,-0.2819,2.37,2.57,2.75,2.92,3.14,3.06,3.01,3.86,3.2,3.93,4.01,3.94,3.89,3.84,3.73,2844,11.85,60423.403,186.566681,1010.382202,-202.797607,1.2575221237605,2.25650532452603,2.36025263239315,6.496722,786.534668,154.537918,101.043907,1186.109863,-5.771176,"CRUZINT"
162,16,47,3.448,3886.5,0.691581,0.096132,0.715259,-0.029648,-0.97349,0.16727,0.03805,3883.38,0.368306,-0.294408,0.507925,-0.720893,-0.78561,0.50099,-0.28612,2.37,2.57,2.75,2.92,3.14,3.06,3.01,3.86,3.2,3.93,4.01,3.94,3.89,3.84,3.73,2855,11.895833,60423.448833,192.954987,1016.866211,-201.101151,1.23150688591389,2.23560754950122,2.36484903256921,6.534017,786.517395,154.421738,101.390312,1186.590698,-4.885533,"CRUZINT"
163,16,47,3.453,3886.52,0.69137,0.09622,0.71546,-0.029444,-0.96995,0.16891,0.03905,3883.4,0.37017,-0.28475,0.511781,-0.721091,-0.75256,0.50089,-0.28589,2.37,2.57,2.75,2.92,3.14,3.06,3.01,3.86,3.2,3.94,4.01,3.94,3.89,3.84,3.73,2856,11.9,60423.453,193.490005,1017.499451,-200.932098,1.22925992951684,2.23365575714406,2.36532918627237,6.544472,786.510498,154.406357,101.430771,1186.639038,-4.811699,"CRUZINT"
164,16,47,3.476,3886.54,0.691174,0.096323,0.715645,-0.029193,-0.96821,0.17064,0.03887,3883.42,0.3721,-0.275264,0.515955,-0.720806,-0.76515,0.52809,-0.29515,2.37,2.57,2.75,2.92,3.14,3.06,3.01,3.86,3.2,3.94,4.01,3.94,3.89,3.84,3.73,2862,11.925,60423.478,194.897018,1022.303223,-200.808914,1.22183703428526,2.21863074694297,2.37512453464843,6.587327,786.518066,154.371063,101.635635,1186.901978,-4.323711,"CRUZINT"
165,16,47,3.482,3886.56,0.690963,0.09644,0.715845,-0.028888,-0.96819,0.17154,0.03946,3883.44,0.373283,-0.265744,0.520464,-0.720526,-0.77032,0.55228,-0.32401,2.37,2.57,2.75,2.92,3.14,3.06,3.01,3.86,3.2,3.93,4.01,3.94,3.89,3.84,3.73,2863,11.929167,60423.482167,195.654785,1022.994995,-200.771103,1.21884065989254,2.21592374094745,2.37579581596999,6.594253,786.523438,154.372665,101.659874,1186.944946,-4.230206,"CRUZINT"
166,16,47,3.516,3886.58,0.690758,0.096524,0.716045,-0.028557,-0.96809,0.17196,0.04189,3883.46,0.374554,-0.256094,0.525022,-0.720054,-0.76988,0.54811,-0.34366,2.37,2.57,2.75,2.92,3.14,3.06,3.01,3.86,3.2,3.94,4.01,3.94,3.89,3.84,3.73,2872,11.966667,60423.519667,200.819794,1028.696045,-199.234177,1.19674033988073,2.19702902105358,2.37918073938982,6.690667,786.527588,154.43074,101.851303,1187.442749,-3.359919,"CRUZINT"
167,16,47,3.521,3886.6,0.690571,0.096625,0.716226,-0.028209,-0.96905,0.17249,0.0402,3883.48,0.375879,-0.246317,0.529244,-0.719683,-0.77436,0.56961,-0.34251,2.36,2.57,2.75,2.92,3.14,3.06,3.01,3.86,3.2,3.93,4.01,3.94,3.89,3.84,3.73,2873,11.970833,60423.523833,201.321686,1029.35083,-199.07576,1.1945297197588,2.19485028562874,2.3797417634965,6.697974,786.540283,154.441055,101.874535,1187.494263,-3.251063,"CRUZINT"
168,16,47,3.556,3886.62,0.6904,0.096636,0.716401,-0.027914,-0.96946,0.17214,0.04086,3883.5,0.376954,-0.236648,0.53338,-0.719312,-0.72862,0.56135,-0.33219,2.37,2.57,2.75,2.92,3.14,3.06,3.01,3.86,3.2,3.94,4.01,3.94,3.89,3.84,3.73,2881,12.004167,60423.557167,205.248398,1034.68689,-197.480164,1.17654719410498,2.17783849081139,2.38326090151736,6.77539,786.570068,154.548798,102.07132,1187.912842,-2.473638,"CRUZINT"
169,16,47,3.562,3886.64,0.690257,0.096536,0.716559,-0.027737,-0.96849,0.17475,0.03969,3883.52,0.377867,-0.22734,0.537483,-0.718781,-0.71434,0.57071,-0.32399,2.37,2.57,2.75,2.92,3.14,3.06,3.01,3.86,3.2,3.94,4.01,3.94,3.89,3.84,3.73,2883,12.0125,60423.5655,206.195328,1035.970337,-197.011917,1.17204209079657,2.1738105248527,2.38382072504368,6.786853,786.582764,154.576843,102.097832,1188.020386,-2.26833,"CRUZINT"
170,16,47,3.594,3886.66,0.690125,0.0964,0.716707,-0.027654,-0.96885,0.17397,0.03936,3883.54,0.379353,-0.217975,0.541672,-0.717753,-0.71556,0.60041,-0.32598,2.37,2.57,2.75,2.92,3.14,3.06,3.01,3.86,3.2,3.94,4.01,3.94,3.89,3.84,3.73,2890,12.041667,60423.594667,209.508652,1040.51001,-195.5047,1.15628866876391,2.15943123418186,2.38573658005035,6.830346,786.635681,154.633911,102.198814,1188.449951,-1.613236,"CRUZINT"
171,16,47,3.599,3886.68,0.689961,0.0962,0.716893,-0.027619,-0.96983,0.17283,0.03927,3883.56,0.380078,-0.208723,0.545599,-0.717145,-0.72412,0.60876,-0.33491,2.37,2.57,2.75,2.92,3.14,3.06,3.01,3.86,3.2,3.93,4.01,3.94,3.89,3.84,3.73,2892,12.05,60423.603,210.351669,1041.744995,-195.045456,1.15212646983093,2.15562922295334,2.38616283495358,6.842237,786.651245,154.647018,102.228226,1188.56897,-1.435242,"CRUZINT"
172,16,47,3.636,3886.7,0.689804,0.095957,0.717078,-0.027615,-0.97006,0.16691,0.03936,3883.58,0.380932,-0.199424,0.54891,-0.716812,-0.69892,0.61361,-0.32507,2.37,2.57,2.75,2.92,3.14,3.06,3.01,3.86,3.2,3.94,4.01,3.94,3.89,3.84,3.73,2900,12.083333,60423.636333,213.518463,1046.817749,-193.134766,1.13582015392735,2.14010242396729,2.38807512666675,6.892302,786.719482,154.671738,102.369255,1189.001709,-0.771712,"CRUZINT"
173,16,47,3.641,3886.72,0.689665,0.095729,0.71724,-0.027642,-0.97044,0.1623,0.04147,3883.6,0.381435,-0.190102,0.551947,-0.716745,-0.67887,0.63346,-0.32188,2.37,2.57,2.75,2.92,3.14,3.06,3.01,3.86,3.2,3.94,4.01,3.94,3.89,3.84,3.73,2902,12.091667,60423.644667,214.360046,1048.116699,-192.677673,1.13148223091033,2.13599419993042,2.38847175716631,6.899226,786.732178,154.680023,102.404388,1189.096924,-0.637853,"CRUZINT"
174,16,47,3.673,3886.74,0.689506,0.095446,0.717429,-0.027708,-0.97124,0.16138,0.04232,3883.62,0.382002,-0.180813,0.554983,-0.716502,-0.67529,0.65862,-0.32207,2.37,2.57,2.76,2.92,3.14,3.06,3.01,3.86,3.2,3.93,4.01,3.94,3.89,3.84,3.73,2909,12.120833,60423.673833,217.103638,1052.720337,-191.046524,1.11676932413933,2.12144226496178,2.39008311526587,6.947886,786.786133,154.678894,102.515396,1189.424683,-0.150011,"CRUZINT"
175,16,47,3.679,3886.76,0.689379,0.09507,0.717596,-0.027828,-0.97109,0.16176,0.04382,3883.64,0.382445,-0.171461,0.558323,-0.71597,-0.68173,0.66235,-0.31484,2.37,2.57,2.75,2.92,3.14,3.06,3.01,3.86,3.2,3.94,4.01,3.94,3.89,3.84,3.73,2911,12.129167,60423.682167,218.114182,1054.16626,-190.710373,1.11183202423436,2.11643434020443,2.39063195681358,6.957755,786.795288,154.672989,102.560539,1189.528442,-0.033569,"CRUZINT"
176,16,47,3.729,3886.78,0.689265,0.094708,0.717746,-0.028024,-0.96941,0.16497,0.0449,3883.66,0.382739,-0.162066,0.561778,-0.715298,-0.65714,0.66713,-0.31042,2.37,2.57,2.76,2.92,3.14,3.06,3.01,3.86,3.2,3.94,4.01,3.94,3.89,3.84,3.73,2923,12.179167,60423.732167,222.6026,1062.736694,-188.105179,1.08634191157743,2.08869512977404,2.3942508356679,6.989011,786.931946,154.522568,102.807335,1190.076294,0.567307,"CRUZINT"
177,16,47,3.734,3886.8,0.689164,0.094277,0.717892,-0.028233,-0.96793,0.16436,0.0445,3883.68,0.382727,-0.152351,0.565701,-0.714347,-0.63426,0.67807,-0.3212,2.37,2.57,2.76,2.92,3.14,3.06,3.01,3.86,3.2,3.94,4.01,3.94,3.89,3.84,3.73,2924,12.183333,60423.736333,222.971085,1063.42395,-187.883926,1.08423452359794,2.08645438986831,2.39443688767654,6.986669,786.944275,154.491272,102.832283,1190.119141,0.607882,"CRUZINT"
178,16,47,3.756,3886.82,0.689097,0.093959,0.717989,-0.028452,-0.96898,0.16012,0.04227,3883.7,0.382466,-0.142599,0.569786,-0.713253,-0.6219,0.68719,-0.31243,2.37,2.57,2.76,2.92,3.14,3.06,3.01,3.86,3.2,3.94,4.01,3.94,3.89,3.84,3.73,2929,12.204167,60423.757167,224.671799,1066.984009,-186.818741,1.07406758786571,2.07481185948826,2.39589774683861,6.976681,787.021729,154.334488,102.930092,1190.359009,0.849017,"CRUZINT"
179,16,47,3.761,3886.84,0.689009,0.093656,0.718104,-0.02867,-0.9729,0.16174,0.04306,3883.72,0.382018,-0.133224,0.573584,-0.71226,-0.62045,0.69925,-0.30422,2.37,2.57,2.76,2.92,3.14,3.06,3.01,3.86,3.2,3.94,4.01,3.94,3.89,3.84,3.73,2930,12.208333,60423.761333,225.033279,1067.710083,-186.590637,1.07194838094964,2.07247803390287,2.39609118860437,6.971251,787.038208,154.300629,102.965927,1190.411865,0.880225,"CRUZINT"
180,16,47,3.795,3886.86,0.688972,0.093336,0.718174,-0.02886,-0.97321,0.15703,0.0448,3883.74,0.381619,-0.124311,0.57675,-0.711529,-0.61515,0.71505,-0.30158,2.37,2.57,2.76,2.92,3.14,3.06,3.01,3.86,3.2,3.94,4.01,3.94,3.89,3.84,3.73,2939,12.245833,60423.798833,227.705658,1073.662231,-184.756882,1.05558104514844,2.05321785758532,2.39824180987487,6.938757,787.16095,153.911179,103.208519,1190.883301,1.261558,"CRUZINT"
181,16,47,3.8,3886.88,0.688939,0.093144,0.718224,-0.029026,-0.97177,0.15472,0.04475,3883.76,0.381336,-0.115782,0.579442,-0.710932,-0.58285,0.71997,-0.29979,2.37,2.57,2.76,2.92,3.14,3.06,3.01,3.86,3.2,3.94,4.01,3.94,3.89,3.84,3.73,2940,12.25,60423.803,227.954788,1074.255005,-184.560272,1.05399535076736,2.05131377068067,2.39844448645178,6.927381,787.209595,153.878418,103.235703,1190.931274,1.304233,"CRUZINT"
182,16,47,3.834,3886.9,0.688908,0.092274,0.718385,-0.028545,-0.97253,0.15424,0.04747,3883.78,0.380845,-0.107435,0.581427,-0.710886,-0.58058,0.72855,-0.30221,2.37,2.57,2.76,2.93,3.14,3.06,3.01,3.86,3.2,3.94,4.01,3.94,3.89,3.84,3.74,2948,12.283333,60423.836333,230.09285,1079.265137,-182.966934,1.04003087472516,2.03479581498679,2.39973593238915,6.921373,787.311279,153.576004,103.380821,1191.29187,1.575193,"CRUZINT"
183,16,47,3.839,3886.92,0.68891,0.092278,0.718384,-0.028496,-0.97232,0.15588,0.04419,3883.8,0.380211,-0.099193,0.583536,-0.710695,-0.56709,0.72405,-0.30191,2.37,2.57,2.76,2.92,3.14,3.06,3.01,3.86,3.2,3.94,4.01,3.94,3.89,3.84,3.73,2949,12.2875,60423.8405,230.360199,1079.864014,-182.756653,1.038319061554,2.03281423425574,2.39982399504037,6.918464,787.325806,153.545639,103.409531,1191.332153,1.610515,"CRUZINT"
184,16,47,3.874,3886.94,0.688889,0.092286,0.718407,-0.028394,-0.97269,0.15982,0.04468,3883.82,0.379626,-0.091082,0.585544,-0.710441,-0.5592,0.72288,-0.29851,2.37,2.57,2.76,2.92,3.14,3.06,3.01,3.86,3.2,3.94,4.01,3.94,3.89,3.84,3.73,2958,12.325,60423.878,232.421448,1085.154907,-180.873718,1.02364325170042,2.01530871381869,2.40066946023235,6.918557,787.460022,153.300751,103.529907,1191.689819,1.924178,"CRUZINT"
185,16,47,3.879,3886.96,0.688905,0.092316,0.71839,-0.028343,-0.9684,0.1661,0.04483,3883.84,0.37919,-0.083131,0.587481,-0.71005,-0.54797,0.73544,-0.2986,2.37,2.57,2.76,2.92,3.14,3.06,3.01,3.86,3.2,3.94,4,3.93,3.88,3.83,3.73,2959,12.329167,60423.882167,232.641724,1085.719971,-180.688095,1.02206646866825,2.01338047439897,2.40076239419419,6.918176,787.476013,153.27951,103.529762,1191.730591,1.965439,"CRUZINT"
186,16,47,3.915,3886.98,0.688869,0.092264,0.718431,-0.028358,-0.96498,0.17146,0.04614,3883.86,0.378974,-0.075543,0.589323,-0.709486,-0.53357,0.75478,-0.29248,2.37,2.57,2.76,2.92,3.14,3.06,3.01,3.86,3.2,3.94,4.01,3.93,3.88,3.83,3.73,2967,12.3625,60423.9155,234.221664,1090.056763,-179.078766,1.00991386607591,1.99860973821432,2.40117441464873,6.915311,787.603088,153.145554,103.516083,1192.000732,2.306809,"CRUZINT"
187,16,47,3.92,3887,0.688945,0.092341,0.718346,-0.028404,-0.96674,0.17123,0.04442,3883.88,0.378497,-0.068181,0.59063,-0.709399,-0.52754,0.76794,-0.2929,2.37,2.57,2.76,2.92,3.14,3.06,3.01,3.86,3.2,3.94,4.01,3.93,3.88,3.83,3.73,2969,12.370833,60423.923833,234.576111,1091.068115,-178.683121,1.00710799141364,1.99515295967973,2.40124552513617,6.920967,787.632263,153.119629,103.508827,1192.067871,2.408062,"CRUZINT"
188,16,47,3.955,3887.02,0.688898,0.092243,0.7184,-0.028503,-0.96922,0.17142,0.04297,3883.9,0.377981,-0.061203,0.591683,-0.709434,-0.52044,0.75943,-0.29607,2.37,2.57,2.76,2.92,3.14,3.06,3.01,3.86,3.2,3.94,4.01,3.93,3.87,3.83,3.72,2977,12.404167,60423.957167,235.799026,1094.950928,-177.13559,0.996652926599813,1.98189706491023,2.40158708979781,6.922387,787.764587,153.05777,103.432053,1192.345093,2.841428,"CRUZINT"
189,16,47,3.96,3887.04,0.688881,0.092084,0.718431,-0.028625,-0.96709,0.1697,0.04252,3883.92,0.377719,-0.054489,0.592417,-0.709508,-0.50434,0.75551,-0.27701,2.36,2.57,2.76,2.92,3.14,3.06,3.01,3.87,3.2,3.94,4.01,3.93,3.87,3.83,3.72,2978,12.408333,60423.961333,235.94281,1095.405029,-176.96463,0.995474584760782,1.98036726667375,2.40163118740056,6.925128,787.775269,153.046127,103.424568,1192.391602,2.897787,"CRUZINT"
190,16,47,3.995,3887.06,0.688919,0.092011,0.7184,-0.028737,-0.96774,0.16795,0.04145,3883.94,0.377568,-0.048448,0.592846,-0.709668,-0.47892,0.77304,-0.26191,2.37,2.57,2.76,2.92,3.14,3.06,3.01,3.86,3.2,3.94,4.01,3.93,3.86,3.83,3.72,2987,12.445833,60423.998833,237.034927,1099.152832,-175.507019,0.985627695534077,1.96740065185629,2.40196014173194,6.952275,787.863464,153.03299,103.292381,1192.687988,3.364338,"CRUZINT"
191,16,47,4,3887.08,0.688924,0.091718,0.718421,-0.029034,-0.97072,0.1716,0.04564,3883.96,0.377384,-0.042991,0.593375,-0.709676,-0.46584,0.7853,-0.2688,2.37,2.57,2.76,2.92,3.14,3.06,3.01,3.86,3.2,3.94,4.01,3.93,3.86,3.83,3.72,2988,12.45,60424.003,237.12236,1099.531616,-175.361099,0.984695698863189,1.96608675116561,2.4020369505355,6.949222,787.872986,153.032761,103.277382,1192.713623,3.408416,"CRUZINT"
192,16,47,4.048,3887.1,0.688953,0.091465,0.718415,-0.029285,-0.96667,0.1645,0.03957,3883.98,0.376657,-0.037786,0.594116,-0.709738,-0.4823,0.79246,-0.29293,2.36,2.57,2.76,2.92,3.14,3.06,3.01,3.86,3.2,3.94,4.01,3.93,3.85,3.82,3.72,2999,12.495833,60424.048833,238.092682,1103.827515,-173.663345,0.97381004414917,1.95103801365515,2.40249657058084,6.900032,787.961609,152.940323,102.998856,1193.019287,3.948294,"CRUZINT"
193,16,47,4.053,3887.12,0.688915,0.091205,0.71848,-0.029407,-0.96572,0.17109,0.04578,3884,0.375968,-0.032514,0.594949,-0.709666,-0.47503,0.79157,-0.29653,2.36,2.57,2.76,2.92,3.14,3.06,3.01,3.86,3.2,3.94,4.01,3.93,3.84,3.82,3.72,3000,12.5,60424.053,238.170944,1104.206055,-173.494492,0.972821534520926,1.94974902691439,2.40246417640711,6.890169,787.97168,152.933044,102.968224,1193.052612,3.997028,"CRUZINT"
194,16,47,4.076,3887.14,0.688872,0.090946,0.718549,-0.029542,-0.96643,0.16354,0.04211,3884.02,0.375309,-0.027314,0.595801,-0.70952,-0.45593,0.799,-0.29572,2.37,2.57,2.76,2.93,3.15,3.06,3.01,3.87,3.2,3.94,4.01,3.93,3.84,3.82,3.72,3006,12.525,60424.078,238.631729,1106.50647,-172.555908,0.966946959620151,1.9415471057974,2.40257437810775,6.844174,788.005127,152.866501,102.724106,1193.227295,4.356239,"CRUZINT"
195,16,47,4.081,3887.16,0.688786,0.090774,0.718653,-0.029535,-0.96959,0.16017,0.04227,3884.04,0.374497,-0.022268,0.596609,-0.709446,-0.45923,0.80962,-0.2982,2.37,2.57,2.76,2.92,3.14,3.06,3.01,3.86,3.2,3.94,4.01,3.94,3.83,3.82,3.72,3007,12.529167,60424.082167,238.690186,1106.869629,-172.400299,0.96603800082626,1.9402501412268,2.40259921949423,6.837543,788.004272,152.855652,102.680824,1193.251953,4.415372,"CRUZINT"
196,16,47,4.114,3887.18,0.688697,0.090642,0.718752,-0.029603,-0.97051,0.15665,0.0436,3884.06,0.373827,-0.017198,0.597317,-0.709344,-0.46371,0.82772,-0.29402,2.36,2.57,2.76,2.92,3.14,3.06,3.01,3.87,3.2,3.94,4.01,3.94,3.83,3.81,3.72,3015,12.5625,60424.1155,239.123901,1109.727051,-171.189911,0.958689918046837,1.93008813098563,2.40247322732327,6.734596,787.999695,152.760223,102.286903,1193.461914,4.814813,"CRUZINT"
197,16,47,4.119,3887.2,0.688557,0.090509,0.718904,-0.029555,-0.97074,0.15932,0.04041,3884.08,0.37325,-0.012256,0.597679,-0.709447,-0.44517,0.82497,-0.29691,2.36,2.57,2.76,2.92,3.14,3.06,3.01,3.86,3.2,3.94,4,3.95,3.82,3.81,3.72,3016,12.566667,60424.119667,239.181503,1110.064087,-171.050735,0.957796766656312,1.92889416070728,2.40241761524627,6.719154,787.99939,152.753632,102.23719,1193.492065,4.859372,"CRUZINT"
198,16,47,4.156,3887.22,0.688405,0.090396,0.719063,-0.029607,-0.96889,0.15965,0.04417,3884.1,0.372716,-0.007491,0.597797,-0.709694,-0.43447,0.83123,-0.29353,2.37,2.57,2.76,2.92,3.14,3.06,3.01,3.86,3.2,3.94,4,3.95,3.82,3.81,3.71,3025,12.604167,60424.157167,239.555222,1113.092041,-169.689926,0.949840897150222,1.91800415437539,2.40196649848375,6.578782,787.983337,152.679123,101.727341,1193.700806,5.308537,"CRUZINT"
199,16,47,4.161,3887.24,0.68822,0.090313,0.719251,-0.029588,-0.96606,0.16188,0.04187,3884.12,0.372232,-0.002688,0.598122,-0.709708,-0.41994,0.82251,-0.28666,2.37,2.57,2.75,2.93,3.14,3.06,3.01,3.86,3.2,3.94,3.98,3.96,3.81,3.81,3.71,3026,12.608333,60424.161333,239.583344,1113.440308,-169.533417,0.948965888511945,1.91673774218369,2.40194725047123,6.561649,787.987671,152.672928,101.662735,1193.722778,5.365839,"CRUZINT"
200,16,47,4.194,3887.26,0.688077,0.090223,0.719395,-0.029675,-0.96587,0.16288,0.0448,3884.14,0.371436,0.002056,0.598385,-0.709907,-0.42507,0.84396,-0.28296,2.36,2.57,2.76,2.92,3.14,3.06,3.01,3.86,3.2,3.93,3.98,3.96,3.81,3.8,3.71,3034,12.641667,60424.194667,239.761383,1116.255127,-168.4142,0.942434504243302,1.90635252051934,2.40229229354841,6.4341,787.974365,152.624191,101.143837,1193.908081,5.839858,"CRUZINT"
201,16,47,4.199,3887.28,0.687889,0.09018,0.719581,-0.02965,-0.96788,0.16235,0.04295,3884.16,0.370359,0.006608,0.598901,-0.710005,-0.40658,0.83566,-0.27321,2.36,2.57,2.76,2.92,3.15,3.06,3.01,3.86,3.2,3.93,3.98,3.96,3.81,3.8,3.71,3036,12.65,60424.203,239.768463,1116.953735,-168.167511,0.940997259706398,1.9037678903834,2.40252775613931,6.401555,787.972534,152.618042,101.013329,1193.9552,5.952718,"CRUZINT"
202,16,47,4.235,3887.3,0.687703,0.090129,0.719766,-0.029636,-0.96819,0.16392,0.04618,3884.18,0.369174,0.010938,0.599626,-0.709957,-0.40063,0.84024,-0.26723,2.37,2.57,2.76,2.92,3.14,3.05,3.01,3.86,3.2,3.94,3.97,3.96,3.8,3.8,3.71,3044,12.683333,60424.236333,239.007996,1116.961792,-170.034943,0.947237082979302,1.9021371153183,2.40949580333991,6.278722,787.97229,152.617401,100.502609,1194.124268,6.3853,"CRUZINT"
203,16,47,4.24,3887.32,0.687542,0.090022,0.71993,-0.029715,-0.96967,0.16343,0.04682,3884.2,0.367931,0.01519,0.600413,-0.70986,-0.392,0.83956,-0.26524,2.36,2.57,2.76,2.92,3.14,3.05,3.01,3.86,3.2,3.93,3.97,3.97,3.8,3.8,3.71,3045,12.6875,60424.2405,238.997833,1117.273438,-169.931335,0.94664183794569,1.90095454497485,2.40965873655967,6.262815,787.968506,152.616257,100.433678,1194.139648,6.443679,"CRUZINT"
204,16,47,4.29,3887.34,0.687378,0.089983,0.720094,-0.029651,-0.97004,0.16368,0.04857,3884.22,0.366674,0.019212,0.601113,-0.70982,-0.37783,0.85196,-0.27026,2.36,2.57,2.76,2.93,3.14,3.05,3.01,3.86,3.2,3.93,3.97,3.97,3.8,3.79,3.71,3057,12.7375,60424.2905,238.911652,1120.820557,-168.783218,0.939898774904872,1.88768990233895,2.41125463088648,6.097218,787.945435,152.663147,99.760056,1194.331543,6.951902,"CRUZINT"
205,16,47,4.295,3887.36,0.687279,0.089928,0.720197,-0.029605,-0.9698,0.16446,0.04892,3884.24,0.36535,0.022985,0.601733,-0.709866,-0.38199,0.86009,-0.27921,2.37,2.57,2.76,2.92,3.14,3.05,3,3.86,3.2,3.93,3.97,3.98,3.8,3.79,3.71,3059,12.745833,60424.298833,238.851547,1121.368652,-168.624084,0.939063840135013,1.88563216744805,2.41167678206838,6.075566,787.945251,152.670288,99.637825,1194.367432,7.055209,"CRUZINT"
206,16,47,4.315,3887.38,0.687173,0.089819,0.72031,-0.029651,-0.96922,0.16275,0.04851,3884.26,0.364091,0.026312,0.602237,-0.709969,-0.3758,0.84886,-0.27659,2.37,2.57,2.76,2.93,3.14,3.05,3,3.86,3.2,3.93,3.97,3.98,3.8,3.79,3.71,3063,12.7625,60424.3155,238.491043,1122.335083,-168.608856,0.939027092004686,1.88197950858273,2.4137954625838,6.042233,787.939331,152.680054,99.394379,1194.450317,7.246251,"CRUZINT"
207,16,47,4.32,3887.4,0.687089,0.089783,0.720394,-0.029664,-0.9677,0.16312,0.04675,3884.28,0.363123,0.029205,0.602509,-0.71012,-0.37638,0.85789,-0.26885,2.37,2.57,2.76,2.93,3.14,3.05,3,3.85,3.19,3.93,3.97,3.99,3.8,3.78,3.71,3065,12.770833,60424.323833,238.393723,1122.79834,-168.491852,0.938508567868597,1.88031216882089,2.41427407125786,6.028298,787.947021,152.672012,99.286308,1194.494385,7.327271,"CRUZINT"
208,16,47,4.354,3887.42,0.686996,0.089652,0.720496,-0.029761,-0.96899,0.16323,0.05172,3884.3,0.362303,0.031899,0.602597,-0.71035,-0.36696,0.85932,-0.27703,2.37,2.57,2.76,2.93,3.14,3.04,3,3.85,3.19,3.93,3.97,3.99,3.8,3.78,3.71,3073,12.804167,60424.357167,238.459702,1124.747437,-167.668365,0.933619242964582,1.87314747301104,2.4137166897882,5.977779,787.977966,152.687286,98.787125,1194.654419,7.609805,"CRUZINT"
209,16,47,4.359,3887.44,0.686938,0.089532,0.720562,-0.02985,-0.968,0.16183,0.05197,3884.32,0.361504,0.034668,0.602856,-0.710406,-0.35425,0.85781,-0.27616,2.37,2.57,2.76,2.93,3.14,3.04,2.99,3.85,3.19,3.94,3.97,4,3.8,3.78,3.71,3074,12.808333,60424.361333,238.43129,1124.97229,-167.592163,0.933219504778122,1.87234267848801,2.41379184472973,5.966618,787.983154,152.68222,98.727623,1194.676758,7.642139,"CRUZINT"
210,16,47,4.395,3887.46,0.686839,0.089463,0.720663,-0.029883,-0.97168,0.16106,0.05279,3884.34,0.360603,0.037421,0.603384,-0.710276,-0.33548,0.85999,-0.26772,2.37,2.57,2.76,2.92,3.14,3.04,2.99,3.85,3.19,3.94,3.96,4,3.8,3.78,3.71,3083,12.845833,60424.398833,238.22023,1126.980225,-166.945999,0.929671420135516,1.86474969803561,2.41465892041201,5.933773,787.99176,152.728683,98.294281,1194.765015,7.866456,"CRUZINT"
211,16,47,4.4,3887.48,0.686776,0.089344,0.720733,-0.030009,-0.9744,0.15996,0.05258,3884.36,0.359495,0.039953,0.603979,-0.710195,-0.33554,0.86508,-0.27602,2.37,2.57,2.76,2.92,3.15,3.03,2.99,3.85,3.19,3.94,3.97,4.01,3.8,3.78,3.72,3084,12.85,60424.403,238.188278,1127.175781,-166.891403,0.929404012880718,1.86396319354846,2.41483948113682,5.924451,787.991333,152.725113,98.252411,1194.765015,7.898892,"CRUZINT"
212,16,47,4.434,3887.5,0.686644,0.089201,0.720867,-0.030231,-0.97034,0.1597,0.05099,3884.38,0.358416,0.042279,0.604779,-0.709925,-0.35057,0.86649,-0.27044,2.37,2.57,2.76,2.92,3.14,3.03,2.98,3.85,3.18,3.94,3.96,4.01,3.8,3.77,3.72,3092,12.883333,60424.436333,237.985245,1128.653198,-166.430481,0.926953390673244,1.85829038430377,2.41560538749328,5.858123,788.014038,152.709793,97.905273,1194.82251,8.086686,"CRUZINT"
213,16,47,4.438,3887.52,0.686554,0.089028,0.720965,-0.030441,-0.96715,0.16387,0.04956,3884.4,0.357534,0.044518,0.60538,-0.70972,-0.33601,0.86654,-0.26219,2.36,2.57,2.76,2.93,3.14,3.03,2.97,3.85,3.18,3.94,3.97,4.02,3.81,3.77,3.72,3093,12.8875,60424.4405,237.966507,1128.811646,-166.372055,0.926659845220841,1.85767224064027,2.41565972830631,5.853799,788.020386,152.70668,97.870537,1194.824341,8.105229,"CRUZINT"
214,16,47,4.488,3887.54,0.686485,0.088909,0.721039,-0.030611,-0.96865,0.15918,0.05061,3884.42,0.356776,0.046194,0.605695,-0.709726,-0.32601,0.86874,-0.256,2.37,2.57,2.76,2.93,3.14,3.03,2.97,3.85,3.18,3.94,3.97,4.02,3.81,3.77,3.72,3105,12.9375,60424.4905,237.588638,1130.25061,-166.006897,0.925066523074625,1.85219734175993,2.41708565358383,5.795138,788.04187,152.654404,97.478172,1194.90686,8.339443,"CRUZINT"
215,16,47,4.493,3887.56,0.686447,0.08878,0.721086,-0.030724,-0.96953,0.15784,0.0496,3884.44,0.356036,0.047365,0.605894,-0.70985,-0.31867,0.8618,-0.253,2.37,2.57,2.76,2.93,3.14,3.02,2.96,3.85,3.19,3.93,3.97,4.02,3.82,3.77,3.72,3106,12.941667,60424.494667,237.552017,1130.323975,-165.988586,0.925014430743186,1.85191529155729,2.41718675258447,5.790327,788.042969,152.65155,97.444359,1194.911377,8.357806,"CRUZINT"
216,16,47,4.515,3887.58,0.686397,0.088733,0.721136,-0.030793,-0.97083,0.15928,0.05087,3884.46,0.355439,0.048196,0.606216,-0.709819,-0.32192,0.86652,-0.25049,2.37,2.57,2.76,2.93,3.14,3.02,2.96,3.84,3.18,3.93,3.97,4.03,3.82,3.77,3.73,3111,12.9625,60424.5155,237.385239,1130.612915,-165.952011,0.924936359643672,1.85083261260527,2.4176916499929,5.778781,788.048706,152.629745,97.301323,1194.940552,8.424631,"CRUZINT"
217,16,47,4.52,3887.6,0.686352,0.088608,0.721194,-0.030808,-0.96955,0.15984,0.05279,3884.48,0.354925,0.048381,0.606526,-0.709799,-0.32272,0.86298,-0.2523,2.37,2.57,2.76,2.93,3.14,3.02,2.95,3.84,3.19,3.93,3.97,4.03,3.83,3.76,3.73,3113,12.970833,60424.523833,237.308716,1130.674438,-165.954285,0.925017607887557,1.85060585653257,2.41789168908135,5.778419,788.047058,152.623169,97.250938,1194.946289,8.439447,"CRUZINT"
218,16,47,4.554,3887.62,0.686352,0.088582,0.721196,-0.030842,-0.96922,0.15996,0.05178,3884.5,0.354627,0.048351,0.606708,-0.709794,-0.3222,0.86586,-0.25009,2.37,2.57,2.76,2.92,3.14,3.02,2.95,3.84,3.19,3.93,3.97,4.03,3.83,3.76,3.74,3121,13.004167,60424.557167,237.014786,1130.637451,-166.065125,0.925659659371005,1.8506722359011,2.41847801565954,5.7651,788.029419,152.628235,97.066704,1194.928589,8.430981,"CRUZINT"
219,16,47,4.559,3887.64,0.686357,0.088585,0.721189,-0.030854,-0.96681,0.16005,0.05411,3884.52,0.354581,0.047832,0.606748,-0.709818,-0.32277,0.86476,-0.26111,2.37,2.57,2.76,2.93,3.14,3.02,2.94,3.84,3.19,3.93,3.97,4.03,3.84,3.76,3.74,3122,13.008333,60424.561333,236.982803,1130.595703,-166.082825,0.925742221794944,1.85082125257466,2.4184782073002,5.764294,788.021179,152.628632,97.042389,1194.923706,8.422895,"CRUZINT"
220,16,47,4.595,3887.66,0.687007,0.088452,0.720601,-0.030522,-0.96978,0.1619,0.04916,3884.54,0.354684,0.047132,0.60681,-0.70976,-0.32532,0.86135,-0.26744,2.37,2.57,2.76,2.93,3.14,3.02,2.94,3.84,3.19,3.93,3.97,4.03,3.84,3.76,3.74,3131,13.045833,60424.598833,236.705246,1129.972778,-166.228699,0.926778367985342,1.85309260770004,2.41826085236084,5.730401,787.997131,152.670258,96.897034,1194.836792,8.319174,"CRUZINT"
221,16,47,4.6,3887.68,0.687007,0.088478,0.720598,-0.030521,-0.96824,0.16342,0.05219,3884.56,0.355074,0.046259,0.606744,-0.709679,-0.3291,0.86215,-0.26385,2.37,2.57,2.76,2.92,3.14,3.02,2.93,3.83,3.19,3.93,3.96,4.03,3.85,3.76,3.75,3132,13.05,60424.603,236.677338,1129.865234,-166.253922,0.926927752800587,1.85350761689588,2.41818148365204,5.727879,787.993286,152.672516,96.877312,1194.831177,8.306232,"CRUZINT"
222,16,47,4.634,3887.7,0.687058,0.088578,0.720534,-0.030584,-0.96793,0.16403,0.04761,3884.58,0.355753,0.045093,0.60645,-0.709665,-0.32601,0.866,-0.25626,2.37,2.57,2.76,2.93,3.14,3.02,2.92,3.83,3.19,3.92,3.96,4.03,3.85,3.76,3.75,3140,13.083333,60424.636333,236.485107,1128.713135,-166.553772,0.928597989615767,1.85775898917628,2.41748619267532,5.682472,787.961121,152.731903,96.852478,1194.697266,8.079115,"CRUZINT"
223,16,47,4.638,3887.72,0.687078,0.088602,0.720509,-0.030684,-0.96681,0.16366,0.04996,3884.6,0.356549,0.043673,0.605871,-0.709849,-0.31934,0.86529,-0.26294,2.37,2.57,2.76,2.93,3.14,3.02,2.92,3.83,3.2,3.92,3.96,4.03,3.86,3.76,3.75,3141,13.0875,60424.6405,236.463394,1128.554199,-166.590912,0.928828425397978,1.85832187849879,2.41740070959777,5.685159,787.949219,152.737671,96.85006,1194.675415,8.058454,"CRUZINT"
224,16,47,4.689,3887.74,0.68711,0.08863,0.720468,-0.030829,-0.96868,0.16363,0.05012,3884.62,0.357241,0.04188,0.605456,-0.709963,-0.31784,0.85444,-0.26137,2.37,2.57,2.76,2.93,3.14,3.02,2.91,3.83,3.2,3.92,3.96,4.02,3.86,3.75,3.75,3153,13.1375,60424.6905,236.095139,1126.054321,-167.242859,0.932875358112017,1.86729059121761,2.41632456370559,5.684278,787.854858,152.778046,96.931618,1194.328857,7.626032,"CRUZINT"
225,16,47,4.694,3887.76,0.687125,0.088671,0.720444,-0.030942,-0.96962,0.16185,0.04991,3884.64,0.357853,0.039842,0.605118,-0.71006,-0.33979,0.8512,-0.25659,2.37,2.57,2.76,2.93,3.15,3.02,2.9,3.82,3.2,3.92,3.96,4.03,3.86,3.75,3.75,3154,13.141667,60424.694667,236.029083,1125.775635,-167.315842,0.933399490388506,1.86832096942904,2.41624873615669,5.680158,787.843872,152.781082,96.938972,1194.292725,7.572731,"CRUZINT"
226,16,47,4.714,3887.78,0.687158,0.088736,0.720399,-0.031049,-0.9694,0.16284,0.04776,3884.66,0.358578,0.037427,0.604626,-0.710245,-0.36412,0.8638,-0.25085,2.37,2.57,2.76,2.92,3.15,3.02,2.9,3.82,3.2,3.91,3.96,4.03,3.87,3.76,3.75,3159,13.1625,60424.7155,235.394775,1124.267822,-168.083618,0.93820021757924,1.8737768986868,2.41776215845886,5.690795,787.784485,152.801514,96.979378,1194.118408,7.32913,"CRUZINT"
227,16,47,4.719,3887.8,0.687168,0.088778,0.72038,-0.031164,-0.96732,0.16176,0.05256,3884.68,0.359424,0.034781,0.603885,-0.710583,-0.34738,0.88341,-0.26156,2.37,2.57,2.77,2.92,3.15,3.02,2.89,3.81,3.2,3.91,3.96,4.03,3.87,3.75,3.75,3160,13.166667,60424.719667,235.332886,1123.992432,-168.190201,0.938775099753609,1.87474752656536,2.41775666510835,5.689984,787.77301,152.806686,96.983994,1194.081177,7.27504,"CRUZINT"
228,16,47,4.754,3887.82,0.687217,0.088908,0.720315,-0.031236,-0.96687,0.16098,0.05392,3884.7,0.360041,0.032212,0.603313,-0.710877,-0.34739,0.8815,-0.27825,2.36,2.57,2.77,2.92,3.15,3.02,2.88,3.82,3.21,3.91,3.96,4.03,3.87,3.75,3.75,3169,13.204167,60424.757167,235.055206,1121.949707,-168.964676,0.942719813772451,1.88167099289446,2.41751715504124,5.738834,787.664307,152.923874,97.164864,1193.733643,6.830406,"CRUZINT"
229,16,47,4.759,3887.84,0.687292,0.089165,0.720214,-0.031157,-0.96687,0.16047,0.05409,3884.72,0.360413,0.029684,0.603043,-0.711028,-0.3543,0.86925,-0.27476,2.36,2.57,2.77,2.91,3.15,3.02,2.87,3.81,3.21,3.9,3.96,4.03,3.88,3.75,3.75,3170,13.208333,60424.761333,235.305374,1121.817505,-168.785675,0.941504475264756,1.88210339281744,2.41609860747665,5.741487,787.661987,152.939224,97.184677,1193.697876,6.788302,"CRUZINT"
230,16,47,4.795,3887.86,0.687387,0.08941,0.720096,-0.031099,-0.96718,0.16593,0.04607,3884.74,0.360545,0.027122,0.603246,-0.710891,-0.3663,0.8728,-0.2659,2.36,2.57,2.77,2.91,3.15,3.01,2.87,3.8,3.22,3.9,3.96,4.03,3.88,3.75,3.76,3179,13.245833,60424.798833,234.81076,1119.859619,-169.734375,0.946687726338471,1.88898990531555,2.41697497308064,5.791103,787.592285,153.007919,97.341774,1193.4552,6.403296,"CRUZINT"
231,16,47,4.8,3887.88,0.687468,0.089504,0.720002,-0.031205,-0.96699,0.16902,0.05146,3884.76,0.360503,0.024446,0.603694,-0.710629,-0.3713,0.88088,-0.27173,2.35,2.57,2.78,2.9,3.15,3,2.86,3.79,3.22,3.89,3.96,4.03,3.88,3.75,3.76,3180,13.25,60424.803,234.753876,1119.642212,-169.853088,0.947297392666446,1.88974672194593,2.4171037962462,5.79979,787.585754,153.007431,97.35199,1193.43335,6.367907,"CRUZINT"
232,16,47,4.851,3887.9,0.687517,0.08962,0.719935,-0.031326,-0.97053,0.16938,0.04724,3884.78,0.360375,0.021662,0.604022,-0.710505,-0.36947,0.87526,-0.27665,2.35,2.57,2.78,2.9,3.16,3,2.85,3.78,3.22,3.89,3.96,4.02,3.89,3.75,3.76,3192,13.3,60424.853,234.082764,1117.010132,-171.401978,0.955166714692311,1.8989422582097,2.41901512509345,5.847476,787.536499,153.033875,97.650948,1193.152954,5.815076,"CRUZINT"
233,16,47,4.856,3887.92,0.687618,0.089797,0.719815,-0.03137,-0.97377,0.16166,0.05165,3884.8,0.360146,0.018729,0.604116,-0.710625,-0.37094,0.85878,-0.27359,2.35,2.57,2.78,2.89,3.16,2.99,2.85,3.78,3.22,3.88,3.96,4.03,3.89,3.75,3.76,3193,13.304167,60424.857167,234.02626,1116.769043,-171.547531,0.955896358292551,1.89974542556274,2.41921391682069,5.851414,787.540161,153.044418,97.687546,1193.118164,5.762574,"CRUZINT"
234,16,47,4.874,3887.94,0.687709,0.089943,0.719708,-0.03142,-0.97213,0.15958,0.04892,3884.82,0.359886,0.015635,0.604162,-0.710793,-0.37758,0.85683,-0.26334,2.34,2.57,2.78,2.89,3.16,2.98,2.84,3.77,3.23,3.88,3.96,4.02,3.89,3.75,3.76,3198,13.325,60424.878,233.658356,1115.506592,-172.330978,0.959846696514878,1.90414596369234,2.42023374625131,5.911443,787.50415,153.059296,97.862877,1192.964966,5.426949,"CRUZINT"
235,16,47,4.881,3887.96,0.687803,0.090042,0.719608,-0.031386,-0.9728,0.16026,0.0481,3884.84,0.359594,0.012483,0.604122,-0.711037,-0.39092,0.86149,-0.25896,2.34,2.57,2.79,2.88,3.16,2.97,2.83,3.77,3.24,3.87,3.96,4.02,3.89,3.75,3.76,3199,13.329167,60424.882167,233.569168,1115.231812,-172.520432,0.960793700434713,1.90509229064839,2.42053999916763,5.922529,787.490173,153.057602,97.903847,1192.932495,5.355547,"CRUZINT"
236,16,47,4.933,3887.98,0.687922,0.090202,0.719474,-0.031367,-0.97083,0.16326,0.04935,3884.86,0.359254,0.009218,0.603869,-0.711473,-0.38867,0.85174,-0.25363,2.34,2.56,2.79,2.88,3.16,2.97,2.82,3.76,3.24,3.87,3.96,4.02,3.9,3.75,3.76,3212,13.383333,60424.936333,232.306137,1111.704468,-175.156113,0.973933721787817,1.91688499601378,2.42544425237851,6.103208,787.407959,153.097946,98.45298,1192.490479,4.491098,"CRUZINT"
237,16,47,4.938,3888,0.68801,0.090371,0.719369,-0.031378,-0.96688,0.1656,0.05096,3884.88,0.358778,0.005616,0.60354,-0.71203,-0.3813,0.85906,-0.25272,2.34,2.56,2.79,2.88,3.16,2.95,2.81,3.75,3.24,3.86,3.95,4.02,3.9,3.75,3.77,3213,13.3875,60424.9405,232.203232,1111.452759,-175.365829,0.974924266431388,1.91763489542066,2.4258901136537,6.117846,787.401184,153.106537,98.475334,1192.449097,4.445086,"CRUZINT"
238,16,47,4.955,3888.02,0.688144,0.09056,0.719218,-0.03134,-0.96654,0.16577,0.05001,3884.9,0.357931,0.001776,0.603605,-0.712421,-0.39289,0.86258,-0.27019,2.34,2.55,2.79,2.88,3.16,2.94,2.81,3.75,3.25,3.86,3.96,4.02,3.9,3.75,3.77,3217,13.404167,60424.957167,231.797516,1110.531494,-176.184372,0.978759905652766,1.92048260523525,2.42763842707204,6.180378,787.388977,153.143188,98.583839,1192.314941,4.228967,"CRUZINT"
239,16,47,4.963,3888.04,0.688295,0.090758,0.719051,-0.031294,-0.96783,0.16478,0.05015,3884.92,0.356747,-0.001999,0.604159,-0.712545,-0.41382,0.84818,-0.28713,2.33,2.55,2.79,2.88,3.17,2.93,2.8,3.74,3.25,3.85,3.96,4.02,3.91,3.75,3.77,3219,13.4125,60424.9655,231.561996,1110.061401,-176.618744,0.980882842436655,1.92196887649101,2.42865492813054,6.208745,787.380554,153.151688,98.649475,1192.252075,4.116117,"CRUZINT"
240,16,47,5.01,3888.06,0.688456,0.090975,0.718873,-0.031199,-0.96927,0.16549,0.04504,3884.94,0.355573,-0.005688,0.605061,-0.712345,-0.41399,0.82929,-0.28775,2.33,2.54,2.79,2.88,3.17,2.92,2.8,3.74,3.25,3.85,3.96,4.02,3.91,3.75,3.77,3230,13.458333,60425.011333,230.360535,1107.237427,-178.780792,0.992101832114888,1.93138004539545,2.43287844735672,6.363053,787.365723,153.217453,99.027779,1191.958984,3.523121,"CRUZINT"
241,16,47,5.017,3888.08,0.688603,0.091135,0.718713,-0.031184,-0.96976,0.16643,0.04651,3884.96,0.35458,-0.00962,0.606054,-0.711954,-0.41152,0.82384,-0.27618,2.33,2.54,2.8,2.88,3.17,2.91,2.79,3.74,3.25,3.84,3.95,4.02,3.91,3.75,3.77,3232,13.466667,60425.019667,230.114105,1106.598999,-179.206985,0.994435327801942,1.93355813219154,2.43357980950431,6.377942,787.366089,153.218643,99.103333,1191.905762,3.412063,"CRUZINT"
242,16,47,5.034,3888.1,0.688725,0.091215,0.718585,-0.031185,-0.96995,0.16921,0.04531,3884.98,0.353916,-0.014061,0.606714,-0.711649,-0.41837,0.82588,-0.27005,2.32,2.54,2.8,2.88,3.17,2.9,2.78,3.73,3.25,3.83,3.96,4.01,3.91,3.75,3.78,3236,13.483333,60425.036333,229.622086,1105.133301,-180.060547,0.999260568946591,1.93863404319184,2.43460513841226,6.416517,787.3573,153.204117,99.24839,1191.803833,3.192426,"CRUZINT"
243,16,47,5.039,3888.12,0.688869,0.091332,0.718431,-0.031229,-0.97128,0.16661,0.04593,3885,0.35352,-0.019054,0.606595,-0.711831,-0.42829,0.82244,-0.27532,2.32,2.54,2.8,2.89,3.17,2.9,2.77,3.73,3.25,3.82,3.96,4.01,3.91,3.75,3.78,3237,13.4875,60425.0405,229.476791,1104.755005,-180.284332,1.00053752273321,1.93994718773233,2.43488733856777,6.426086,787.356934,153.199066,99.281822,1191.774414,3.125846,"CRUZINT"
244,16,47,5.075,3888.14,0.689027,0.091521,0.718257,-0.031201,-0.97037,0.1633,0.04424,3885.02,0.353308,-0.024408,0.605784,-0.712463,-0.43818,0.80859,-0.27998,2.31,2.55,2.8,2.89,3.16,2.89,2.76,3.73,3.25,3.82,3.96,4.01,3.92,3.75,3.78,3246,13.525,60425.078,227.883026,1100.732056,-182.331772,1.0133683419206,1.95671256060076,2.43499055167983,6.501477,787.347107,153.143097,99.651459,1191.973877,2.031952,"CRUZINT"
245,16,47,5.082,3888.16,0.689213,0.091605,0.718068,-0.031183,-0.97229,0.16101,0.04166,3885.04,0.353289,-0.030042,0.604548,-0.713307,-0.44434,0.80837,-0.27016,2.3,2.55,2.81,2.9,3.16,2.88,2.76,3.72,3.25,3.81,3.95,4.01,3.92,3.75,3.78,3247,13.529167,60425.082167,227.829117,1100.353394,-182.474777,1.01416502503138,1.95797435364402,2.43482231429553,6.511476,787.339417,153.136063,99.678757,1191.937622,1.981527,"CRUZINT"
246,16,47,5.115,3888.18,0.68937,0.091726,0.717902,-0.031172,-0.97023,0.16075,0.04323,3885.06,0.353237,-0.036088,0.603289,-0.714118,-0.43813,0.81165,-0.26468,2.29,2.56,2.81,2.91,3.15,2.88,2.75,3.72,3.25,3.81,3.95,4.01,3.92,3.75,3.78,3255,13.5625,60425.1155,226.762711,1096.87146,-184.078293,1.02375873218647,1.96715365737295,2.43693631002429,6.594014,787.323914,153.12291,99.752457,1191.138062,1.943056,"CRUZINT"
247,16,47,5.121,3888.2,0.689486,0.091876,0.717776,-0.031063,-0.96847,0.16197,0.0455,3885.08,0.353068,-0.042163,0.601989,-0.714964,-0.46238,0.80209,-0.26782,2.28,2.57,2.81,2.92,3.15,2.87,2.75,3.72,3.25,3.8,3.95,4.01,3.92,3.75,3.78,3257,13.570833,60425.123833,226.433517,1095.957886,-184.530899,1.02644823094312,1.97020215975876,2.43714752545415,6.615487,787.320313,153.130127,99.802292,1191.047607,1.792095,"CRUZINT"
248,16,47,5.156,3888.22,0.689631,0.092181,0.717604,-0.030919,-0.96934,0.1622,0.0415,3885.1,0.352856,-0.04824,0.600826,-0.715663,-0.47107,0.78401,-0.29274,2.28,2.57,2.81,2.93,3.14,2.87,2.75,3.71,3.25,3.79,3.95,4.01,3.92,3.75,3.78,3265,13.604167,60425.157167,224.488464,1091.753662,-186.261002,1.0396901409421,1.98485834392557,2.43816103521183,6.725685,787.33374,153.158737,99.923912,1190.702271,1.298012,"CRUZINT"
249,16,47,5.164,3888.24,0.689732,0.092381,0.717483,-0.030873,-0.96917,0.16964,0.04356,3885.12,0.352751,-0.054467,0.59997,-0.715986,-0.48085,0.7538,-0.28983,2.27,2.57,2.82,2.94,3.13,2.86,2.74,3.72,3.25,3.78,3.95,4.01,3.92,3.75,3.78,3267,13.6125,60425.1655,224.015976,1090.68103,-186.647263,1.04282956624083,1.9885339860235,2.43818175405452,6.755426,787.339355,153.149734,99.92347,1190.613037,1.209204,"CRUZINT"
250,16,47,5.194,3888.26,0.689793,0.092608,0.717395,-0.0309,-0.96586,0.17294,0.04302,3885.14,0.352788,-0.061583,0.59908,-0.716137,-0.47593,0.73451,-0.27633,2.27,2.58,2.82,2.95,3.13,2.86,2.73,3.71,3.25,3.78,3.95,4.01,3.92,3.75,3.78,3274,13.641667,60425.194667,221.702545,1086.017578,-187.995605,1.05689182139944,2.00516905560905,2.43779669468115,6.85269,787.34491,153.108002,99.924347,1190.271606,0.869719,"CRUZINT"
251,16,47,5.2,3888.28,0.689908,0.092748,0.717265,-0.030905,-0.97053,0.17018,0.04231,3885.16,0.35337,-0.06968,0.597418,-0.716496,-0.52562,0.75173,-0.2575,2.26,2.58,2.83,2.96,3.11,2.85,2.73,3.71,3.25,3.77,3.95,4.01,3.92,3.75,3.78,3276,13.65,60425.203,221.042358,1084.652466,-188.414154,1.06098405481402,2.00996229714091,2.43761471971745,6.871123,787.34259,153.116714,99.937569,1190.165771,0.750672,"CRUZINT"
252,16,47,5.235,3888.3,0.69007,0.092965,0.717086,-0.030804,-0.97149,0.16497,0.04424,3885.18,0.354613,-0.078616,0.594247,-0.717592,-0.54147,0.80057,-0.28999,2.25,2.59,2.83,2.97,3.1,2.85,2.72,3.71,3.25,3.77,3.95,4.01,3.92,3.75,3.78,3284,13.683333,60425.236333,218.495468,1078.770386,-189.970474,1.07698376981329,2.03044044484334,2.43505101972131,6.921438,787.31311,153.195465,99.957077,1189.716797,0.249491,"CRUZINT"
253,16,47,5.24,3888.32,0.690195,0.093225,0.716937,-0.030681,-0.97158,0.16457,0.04398,3885.2,0.356056,-0.087258,0.590517,-0.718958,-0.51292,0.80176,-0.34061,2.25,2.59,2.83,2.99,3.09,2.85,2.71,3.71,3.25,3.76,3.95,4.01,3.92,3.75,3.78,3285,13.6875,60425.2405,218.192505,1078.061646,-190.161163,1.07882530520258,2.03287619793402,2.43464082338461,6.926867,787.307739,153.223679,99.949455,1189.657837,0.16987,"CRUZINT"
254,16,47,5.276,3888.34,0.690337,0.093486,0.716776,-0.030471,-0.96688,0.16476,0.04039,3885.22,0.357149,-0.095203,0.587091,-0.720212,-0.49969,0.78714,-0.34581,2.24,2.6,2.83,3,3.07,2.84,2.71,3.71,3.25,3.76,3.95,4.01,3.92,3.75,3.78,3294,13.725,60425.278,216.162674,1072.462524,-191.423737,1.09153530920055,2.05112525246086,2.43032125765684,6.962391,787.181519,153.603958,99.838417,1189.025757,-0.326572,"CRUZINT"
255,16,47,5.282,3888.36,0.690488,0.093643,0.716616,-0.030313,-0.96854,0.16963,0.0327,3885.24,0.357642,-0.102858,0.583965,-0.721455,-0.51123,0.7614,-0.32574,2.23,2.61,2.84,3.01,3.06,2.84,2.71,3.71,3.26,3.76,3.94,4.01,3.92,3.75,3.78,3295,13.729167,60425.282167,215.463028,1071.506104,-191.648346,1.09510546777882,2.05460627803724,2.43037626599821,6.969759,787.166626,153.643112,99.838654,1188.948975,-0.376686,"CRUZINT"
256,16,47,5.315,3888.38,0.690581,0.093583,0.716529,-0.030419,-0.96437,0.17524,0.02984,3885.26,0.357945,-0.110427,0.581284,-0.72235,-0.56677,0.75837,-0.30193,2.22,2.62,2.85,3.03,3.05,2.84,2.71,3.7,3.26,3.75,3.94,4.01,3.92,3.75,3.78,3303,13.7625,60425.3155,213.303131,1066.825317,-192.864319,1.10801428283084,2.06976935777766,2.42814934666398,6.955588,787.113892,153.868347,99.878807,1188.401245,-0.762934,"CRUZINT"
257,16,47,5.32,3888.4,0.690737,0.093552,0.716368,-0.030788,-0.96054,0.18541,0.02879,3885.28,0.358195,-0.117882,0.579073,-0.722824,-0.5878,0.7629,-0.30451,2.2,2.63,2.85,3.04,3.05,2.84,2.7,3.7,3.26,3.75,3.94,4.01,3.92,3.75,3.78,3305,13.770833,60425.323833,212.738663,1065.737427,-193.154846,1.11124610239279,2.07334723281882,2.427706983567,6.94988,787.114746,153.888168,99.875114,1188.300293,-0.829608,"CRUZINT"
258,16,47,5.354,3888.42,0.690872,0.093472,0.716235,-0.031098,-0.96308,0.18133,0.03482,3885.3,0.35821,-0.125296,0.577365,-0.722936,-0.57549,0.76168,-0.31433,2.18,2.64,2.86,3.05,3.04,2.84,2.7,3.71,3.26,3.75,3.94,4.01,3.92,3.75,3.77,3313,13.804167,60425.357167,210.452576,1061.360107,-194.427048,1.1246784441844,2.08771686199595,2.4260188256988,6.976222,787.093079,153.921585,99.889137,1188.000366,-1.030637,"CRUZINT"
259,16,47,5.359,3888.44,0.69098,0.093502,0.716119,-0.031251,-0.97067,0.1642,0.03782,3885.32,0.357851,-0.133085,0.575522,-0.723191,-0.56044,0.74899,-0.30756,2.17,2.65,2.86,3.06,3.02,2.84,2.69,3.7,3.25,3.75,3.94,4.01,3.92,3.75,3.78,3314,13.808333,60425.361333,210.156128,1060.848267,-194.608704,1.12640355826723,2.08936763938325,2.42593928829356,6.982063,787.09021,153.921951,99.892136,1187.970825,-1.050979,"CRUZINT"
260,16,47,5.394,3888.46,0.691029,0.093058,0.71614,-0.031015,-0.97696,0.15349,0.04196,3885.34,0.357188,-0.141206,0.57311,-0.723894,-0.58391,0.74182,-0.29703,2.16,2.66,2.87,3.07,3.01,2.84,2.69,3.7,3.25,3.75,3.94,4.02,3.92,3.75,3.78,3322,13.841667,60425.394667,207.713074,1056.498657,-196.144363,1.1407086051499,2.10326950936777,2.42483772850382,7.07742,787.03949,153.871506,99.942596,1187.716553,-1.270797,"CRUZINT"
261,16,47,5.399,3888.48,0.69109,0.093074,0.716083,-0.03093,-0.97524,0.15414,0.04539,3885.36,0.356281,-0.149563,0.570191,-0.724967,-0.61021,0.73485,-0.29147,2.15,2.67,2.87,3.08,3.01,2.84,2.68,3.7,3.26,3.74,3.95,4.02,3.92,3.75,3.78,3324,13.85,60425.403,207.036514,1055.439453,-196.526566,1.14443048400463,2.10666032597954,2.42467646782563,7.088492,787.036377,153.855118,99.960289,1187.63501,-1.35067,"CRUZINT"
262,16,47,5.434,3888.5,0.691039,0.093024,0.716147,-0.03074,-0.96927,0.16183,0.04543,3885.38,0.355085,-0.157622,0.567122,-0.726253,-0.60655,0.72391,-0.31022,2.14,2.68,2.87,3.09,3,2.84,2.68,3.7,3.25,3.75,3.94,4.02,3.92,3.76,3.78,3332,13.883333,60425.436333,204.413086,1051.155884,-198.216431,1.15928809266798,2.11982052450202,2.42407641412216,7.143623,787.012268,153.853531,100.049355,1187.31543,-1.632725,"CRUZINT"
263,16,47,5.438,3888.52,0.69105,0.093214,0.716121,-0.030521,-0.96734,0.16399,0.04688,3885.4,0.353409,-0.165594,0.564326,-0.727473,-0.59875,0.69957,-0.33604,2.13,2.68,2.87,3.1,2.99,2.83,2.68,3.7,3.26,3.75,3.95,4.02,3.92,3.76,3.78,3333,13.8875,60425.4405,204.091049,1050.614868,-198.426498,1.16113696282456,2.12145180464097,2.4239751775768,7.15073,787.006653,153.850204,100.068413,1187.270264,-1.668725,"CRUZINT"
264,16,47,5.476,3888.54,0.691051,0.093429,0.716103,-0.030285,-0.96863,0.16443,0.04002,3885.42,0.351714,-0.173684,0.561844,-0.728329,-0.62887,0.68023,-0.32342,2.12,2.69,2.87,3.1,2.99,2.84,2.68,3.7,3.25,3.74,3.95,4.03,3.92,3.76,3.78,3342,13.925,60425.478,201.456528,1046.572876,-199.926773,1.1755601938234,2.13390946126028,2.42318449517452,7.168847,787.002014,153.849701,100.224655,1186.92627,-1.98472,"CRUZINT"
265,16,47,5.481,3888.56,0.691116,0.093545,0.716033,-0.030077,-0.96912,0.16711,0.03462,3885.44,0.350157,-0.182013,0.559479,-0.728865,-0.65956,0.6759,-0.3156,2.12,2.7,2.88,3.1,2.99,2.84,2.68,3.7,3.25,3.75,3.95,4.02,3.92,3.76,3.78,3343,13.929167,60425.482167,201.456528,1046.572876,-199.926773,1.17557273534183,2.13389624486799,2.42320552832289,7.16482,787.010986,153.851852,100.245125,1186.89917,-2.015157,"CRUZINT"
266,16,47,5.514,3888.58,0.691155,0.093612,0.715989,-0.030015,-0.96973,0.17102,0.03423,3885.46,0.348697,-0.190113,0.557121,-0.729303,-0.6597,0.66228,-0.32527,2.12,2.7,2.88,3.11,2.99,2.84,2.68,3.7,3.25,3.75,3.95,4.03,3.92,3.76,3.78,3351,13.9625,60425.5155,201.456528,1046.572876,-199.926773,1.17545557778869,2.13357619021155,2.42341302124354,7.159459,787.005676,153.914612,100.329498,1186.671753,-2.199804,"CRUZINT"
267,16,47,5.519,3888.6,0.691255,0.093799,0.715877,-0.029813,-0.97177,0.16907,0.03551,3885.48,0.347093,-0.198368,0.554415,-0.729932,-0.65962,0.65965,-0.32577,2.12,2.7,2.88,3.11,2.99,2.84,2.68,3.7,3.26,3.75,3.95,4.03,3.91,3.76,3.78,3352,13.966667,60425.519667,201.456528,1046.572876,-199.926773,1.17547393652376,2.13355398229373,2.42344641508998,7.157005,787.009644,153.932602,100.349419,1186.645386,-2.224288,"CRUZINT"
268,16,47,5.552,3888.62,0.691339,0.094023,0.715776,-0.029585,-0.97252,0.16734,0.03345,3885.5,0.345262,-0.206886,0.551498,-0.730645,-0.66933,0.66764,-0.31674,2.12,2.71,2.88,3.12,2.99,2.84,2.69,3.7,3.25,3.75,3.96,4.03,3.91,3.77,3.78,3360,14,60425.553,201.456528,1046.572876,-199.926773,1.17520624315437,2.13297574659498,2.42378082945763,7.159192,786.985352,154.068481,100.397606,1186.360596,-2.387495,"CRUZINT"
269,16,47,5.576,3888.64,0.691453,0.094182,0.71565,-0.029457,-0.96903,0.16888,0.03441,3885.52,0.343252,-0.215469,0.548545,-0.731334,-0.69866,0.66225,-0.34286,2.12,2.71,2.88,3.12,2.99,2.84,2.69,3.7,3.25,3.75,3.96,4.03,3.91,3.76,3.77,3366,14.025,60425.578,201.456528,1046.572876,-199.926773,1.17482637709482,2.13259209871281,2.42385725486468,7.142161,786.955322,154.223129,100.393944,1186.153564,-2.546683,"CRUZINT"
270,16,47,5.581,3888.66,0.691544,0.094369,0.715541,-0.029369,-0.96709,0.1728,0.03512,3885.54,0.341718,-0.22337,0.54529,-0.732116,-0.73514,0.63926,-0.38684,2.12,2.71,2.88,3.12,2.99,2.84,2.7,3.7,3.26,3.75,3.96,4.03,3.91,3.76,3.77,3367,14.029167,60425.582167,201.456528,1046.572876,-199.926773,1.17477002082803,2.13252961317949,2.42387363164403,7.140792,786.940918,154.25209,100.394508,1186.120117,-2.571567,"CRUZINT"
271,16,47,5.615,3888.68,0.691613,0.094459,0.715465,-0.029309,-0.96606,0.17222,0.03669,3885.56,0.341179,-0.230277,0.542337,-0.732421,-0.73125,0.60073,-0.39907,2.12,2.71,2.88,3.12,2.99,2.84,2.7,3.7,3.26,3.75,3.96,4.03,3.91,3.76,3.77,3375,14.0625,60425.6155,201.456528,1046.572876,-199.926773,1.17411718789504,2.13201348691351,2.42387387737414,7.109723,786.920349,154.501236,100.321838,1185.888428,-2.737456,"CRUZINT"
272,16,47,5.62,3888.7,0.691756,0.094456,0.715326,-0.029341,-0.96549,0.17107,0.03341,3885.58,0.341125,-0.236369,0.539931,-0.732283,-0.68047,0.60519,-0.37211,2.11,2.71,2.89,3.12,2.98,2.84,2.71,3.71,3.26,3.75,3.96,4.03,3.91,3.76,3.77,3377,14.070833,60425.623833,201.456528,1046.572876,-199.926773,1.17398388578888,2.13184024854363,2.42393552537252,7.098753,786.908386,154.557266,100.303352,1185.831177,-2.753543,"CRUZINT"
273,16,47,5.654,3888.72,0.691823,0.094331,0.715275,-0.029413,-0.96582,0.17207,0.03322,3885.6,0.340594,-0.242602,0.537581,-0.732221,-0.64457,0.64858,-0.31592,2.11,2.71,2.89,3.13,2.98,2.85,2.71,3.71,3.26,3.76,3.96,4.03,3.9,3.76,3.77,3385,14.104167,60425.657167,201.456528,1046.572876,-199.926773,1.17373417330738,2.13115891365073,2.42437520356573,7.062359,786.829773,154.695221,100.319801,1185.574707,-2.827409,"CRUZINT"
274,16,47,5.66,3888.74,0.691881,0.094167,0.715232,-0.029603,-0.97103,0.16874,0.03462,3885.62,0.338953,-0.249783,0.533949,-0.733225,-0.69568,0.66905,-0.27546,2.11,2.71,2.89,3.13,2.99,2.85,2.71,3.71,3.26,3.76,3.96,4.03,3.9,3.77,3.77,3386,14.108333,60425.661333,201.456528,1046.572876,-199.926773,1.173735861704,2.13110275393743,2.42442745900272,7.059954,786.818237,154.698532,100.334427,1185.542725,-2.846138,"CRUZINT"
275,16,47,5.694,3888.76,0.691983,0.09394,0.715151,-0.029888,-0.97041,0.16647,0.03069,3885.64,0.336572,-0.257279,0.52949,-0.73496,-0.75267,0.64301,-0.27949,2.11,2.71,2.89,3.13,2.98,2.85,2.72,3.71,3.26,3.76,3.97,4.03,3.89,3.76,3.77,3394,14.141667,60425.694667,201.456528,1046.572876,-199.926773,1.1740639065495,2.13087379275766,2.42487164363592,7.02833,786.790405,154.651199,100.501396,1185.371216,-2.941242,"CRUZINT"
276,16,47,5.699,3888.78,0.69204,0.093783,0.715105,-0.030168,-0.96709,0.16307,0.03723,3885.66,0.334195,-0.264357,0.525706,-0.736249,-0.73441,0.57746,-0.30308,2.11,2.72,2.89,3.13,2.99,2.85,2.73,3.71,3.26,3.77,3.96,4.03,3.89,3.76,3.77,3396,14.15,60425.703,201.456528,1046.572876,-199.926773,1.17421303170302,2.1308201267703,2.42502770290809,7.026505,786.792175,154.630478,100.54911,1185.34314,-2.937452,"CRUZINT"
277,16,47,5.735,3888.8,0.692018,0.093534,0.715164,-0.030062,-0.9679,0.15841,0.0407,3885.68,0.331877,-0.271696,0.522959,-0.736582,-0.69163,0.54049,-0.30406,2.1,2.72,2.9,3.13,2.99,2.86,2.73,3.72,3.26,3.77,3.97,4.03,3.88,3.76,3.77,3404,14.183333,60425.736333,201.456528,1046.572876,-199.926773,1.17530898093518,2.13079867044078,2.42583484876166,7.052776,786.802917,154.554886,100.873375,1185.255493,-2.91679,"CRUZINT"
278,16,47,5.74,3888.82,0.692111,0.093601,0.715075,-0.029828,-0.97578,0.15472,0.04243,3885.7,0.329017,-0.279811,0.520655,-0.736459,-0.68842,0.54782,-0.27295,2.1,2.72,2.9,3.13,2.99,2.86,2.74,3.72,3.26,3.77,3.97,4.03,3.88,3.76,3.76,3405,14.1875,60425.7405,201.456528,1046.572876,-199.926773,1.17546900590061,2.13077998219435,2.42596671532114,7.058618,786.800537,154.542725,100.926811,1185.230835,-2.923361,"CRUZINT"
279,16,47,5.789,3888.84,0.692192,0.093678,0.714998,-0.029555,-0.97381,0.15864,0.04051,3885.72,0.326036,-0.287657,0.51887,-0.736021,-0.77345,0.58658,-0.28399,2.1,2.72,2.9,3.13,2.99,2.87,2.75,3.73,3.26,3.78,3.97,4.03,3.87,3.76,3.76,3417,14.2375,60425.7905,201.456528,1046.572876,-199.926773,1.17730158223843,2.1309244280218,2.4271486324059,7.127541,786.836731,154.553574,101.549644,1185.011719,-3.078065,"CRUZINT"
280,16,47,5.795,3888.86,0.692235,0.09379,0.714952,-0.029282,-0.97173,0.16738,0.03988,3885.74,0.323707,-0.294549,0.517938,-0.734979,-0.8028,0.56383,-0.32938,2.09,2.73,2.9,3.13,2.99,2.87,2.76,3.73,3.26,3.78,3.97,4.03,3.87,3.77,3.76,3419,14.245833,60425.798833,201.456528,1046.572876,-199.926773,1.17762313725725,2.13096454910418,2.42734212680734,7.135024,786.855774,154.561615,101.654808,1184.982056,-3.099812,"CRUZINT"
281,16,47,5.815,3888.88,0.692309,0.094,0.714866,-0.028964,-0.96971,0.17088,0.03789,3885.76,0.32172,-0.301184,0.516646,-0.734072,-0.76179,0.52197,-0.34508,2.09,2.73,2.9,3.13,2.99,2.88,2.77,3.74,3.26,3.78,3.98,4.02,3.86,3.77,3.76,3423,14.2625,60425.8155,201.456528,1046.572876,-199.926773,1.17828233546605,2.13099026680566,2.42778978534412,7.147163,786.891907,154.595398,101.868149,1184.911743,-3.131542,"CRUZINT"
282,16,47,5.82,3888.9,0.692436,0.094223,0.714725,-0.028678,-0.96762,0.17046,0.03697,3885.78,0.319485,-0.308539,0.514307,-0.733635,-0.73361,0.52148,-0.31611,2.09,2.73,2.9,3.13,2.99,2.88,2.77,3.74,3.26,3.79,3.98,4.02,3.86,3.76,3.76,3425,14.270833,60425.823833,201.456528,1046.572876,-199.926773,1.17863291136579,2.13100037281184,2.42803087874522,7.151845,786.917603,154.606628,101.985611,1184.86792,-3.155976,"CRUZINT"
283,16,47,5.87,3888.92,0.692602,0.094267,0.714565,-0.028505,-0.97013,0.17154,0.0298,3885.8,0.316776,-0.316584,0.511057,-0.733654,-0.79156,0.5561,-0.2892,2.09,2.73,2.9,3.14,3,2.89,2.78,3.74,3.26,3.8,3.98,4.02,3.85,3.77,3.76,3437,14.320833,60425.873833,201.456528,1046.572876,-199.926773,1.18003975628002,2.13103146334047,2.42900538625536,7.210841,787.008362,154.776184,102.505814,1184.621216,-3.351118,"CRUZINT"
284,16,47,5.875,3888.94,0.692786,0.094277,0.71439,-0.028414,-0.97349,0.17118,0.03275,3885.82,0.314323,-0.324126,0.507632,-0.733794,-0.84809,0.57429,-0.31428,2.09,2.73,2.9,3.14,3,2.9,2.79,3.74,3.26,3.8,3.98,4.02,3.85,3.77,3.76,3438,14.325,60425.878,201.456528,1046.572876,-199.926773,1.18011756867282,2.13104153559932,2.42905161085848,7.225477,787.006531,154.7957,102.53318,1184.611328,-3.360504,"CRUZINT"
285,16,47,5.895,3888.96,0.693025,0.094323,0.714154,-0.028363,-0.97414,0.1687,0.03153,3885.84,0.312209,-0.330678,0.504315,-0.73406,-0.82783,0.52618,-0.34436,2.09,2.73,2.9,3.14,3,2.9,2.79,3.75,3.26,3.81,3.99,4.02,3.84,3.77,3.76,3443,14.345833,60425.898833,201.456528,1046.572876,-199.926773,1.18049574894635,2.13103668252049,2.42932511910249,7.272751,787.051147,154.906265,102.64843,1184.576172,-3.362616,"CRUZINT"
286,16,47,5.9,3888.98,0.693237,0.094419,0.713938,-0.028279,-0.96699,0.16661,0.03118,3885.86,0.310246,-0.336831,0.500837,-0.734476,-0.7842,0.47982,-0.34375,2.09,2.74,2.9,3.14,3,2.91,2.8,3.75,3.26,3.82,3.99,4.02,3.84,3.77,3.76,3444,14.35,60425.903,201.456528,1046.572876,-199.926773,1.18058614229447,2.13103113456905,2.42939445961772,7.282506,787.054199,154.926086,102.673286,1184.570557,-3.357107,"CRUZINT"
287,16,47,5.952,3889,0.693497,0.094448,0.713683,-0.028253,-0.96645,0.16957,0.03019,3885.88,0.308165,-0.343438,0.497001,-0.734898,-0.7745,0.47642,-0.30601,2.09,2.74,2.9,3.14,3,2.92,2.81,3.75,3.26,3.82,4,4.01,3.83,3.77,3.76,3456,14.4,60425.953,201.456528,1046.572876,-199.926773,1.18172870225353,2.13088534565206,2.43033889033155,7.404293,787.132813,155.061218,103.018906,1184.438843,-3.338995,"CRUZINT"
288,16,47,5.957,3889.02,0.693703,0.094337,0.713495,-0.028329,-0.96899,0.17121,0.02947,3885.9,0.305969,-0.35058,0.492596,-0.735409,-0.81198,0.50403,-0.25356,2.09,2.74,2.9,3.14,3,2.92,2.81,3.75,3.26,3.83,4,4.01,3.83,3.77,3.76,3457,14.404167,60425.957167,201.456528,1046.572876,-199.926773,1.18184386037308,2.13090673545682,2.43040114538751,7.413006,787.139648,155.066116,103.056885,1184.429077,-3.349081,"CRUZINT"
289,16,47,5.974,3889.04,0.693902,0.09414,0.713319,-0.02854,-0.97135,0.17039,0.03064,3885.92,0.303702,-0.35747,0.488538,-0.735738,-0.84849,0.51739,-0.25328,2.09,2.74,2.9,3.14,3.01,2.93,2.82,3.75,3.26,3.83,4,4.01,3.82,3.78,3.76,3462,14.425,60425.978,201.456528,1046.572876,-199.926773,1.182487196547,2.13094885959818,2.43081903530091,7.460351,787.174988,155.101395,103.272858,1184.352051,-3.401396,"CRUZINT"
290,16,47,5.979,3889.06,0.694064,0.094013,0.713171,-0.028699,-0.96927,0.16507,0.03371,3885.94,0.301883,-0.363166,0.485923,-0.735429,-0.82057,0.48839,-0.29447,2.1,2.74,2.9,3.14,3.01,2.94,2.82,3.75,3.25,3.84,4,4.01,3.82,3.78,3.76,3463,14.429167,60425.982167,201.456528,1046.572876,-199.926773,1.1825823107762,2.13095612404452,2.43087982834453,7.47418,787.180786,155.107208,103.306999,1184.337769,-3.41376,"CRUZINT"
291,16,47,6.014,3889.08,0.694193,0.093947,0.713051,-0.028768,-0.96905,0.15881,0.03127,3885.96,0.300601,-0.368125,0.48424,-0.734599,-0.82533,0.45508,-0.32438,2.1,2.74,2.9,3.14,3.01,2.95,2.83,3.76,3.25,3.84,3.99,4,3.82,3.78,3.75,3471,14.4625,60426.0155,201.456528,1046.572876,-199.926773,1.18346271298823,2.13120778595303,2.43127403327572,7.544953,787.251099,155.164093,103.60714,1184.268066,-3.525358,"CRUZINT"
