Sample,Hour,Minute,Sec,Stamp,Quat1,Quat2,Quat3,Quat4,AccX,AccY,AccZ,Stamp2,Quat2_1,Quat2_2,Quat2_3,Quat2_4,Acc2_X,Acc2_Y,Acc2_Z,A0,A1,A2,A3,A4,A5,A6,A7,A8,A9,A10,A11,A12,A13,A14,Frame,Time,realTime,BrazoX,BrazoY,BrazoZ,angBrazoX,angBrazoY,angBrazoZ,EspaldaX,EspaldaY,EspaldaZ,refX,refY,refZ,type
2,16,40,28.338,3491.22,0.675308,-0.143595,0.679295,-0.248794,-0.97037,0.14873,-0.02434,3488.16,-0.091278,-0.696397,0.118634,-0.701873,-1.15752,0.32403,-0.03462,2.37,2.59,2.71,2.92,3.13,3.08,3.04,3.91,3.19,3.96,4,3.91,3.8,3.82,3.69,2025,8.4375,60028.3385,56.083965,984.458374,-207.214996,1.67141602843084,2.35155923745181,2.35073936518376,-7.339636,789.903625,168.649048,85.559807,1190.986328,-0.858015,"CRUZINT"
3,16,40,28.346,3491.24,0.675631,-0.143316,0.678802,-0.249421,-0.97897,0.1562,-0.03913,3488.18,-0.090349,-0.696959,0.11622,-0.701839,-0.95115,0.31351,-0.04782,2.37,2.6,2.71,2.92,3.13,3.07,3.04,3.91,3.19,3.96,3.99,3.91,3.79,3.82,3.69,2027,8.445833,60028.346833,56.181942,984.288696,-207.288544,1.67147506342113,2.3521784582004,2.35010832202053,-7.329021,789.927612,168.601471,85.673607,1190.935791,-1.073129,"CRUZINT"
4,16,40,28.352,3491.26,0.675807,-0.143125,0.678372,-0.250223,-0.97199,0.15796,-0.03812,3488.2,-0.090538,-0.696966,0.113401,-0.702269,-0.94709,0.26674,-0.03978,2.37,2.6,2.71,2.92,3.13,3.07,3.04,3.91,3.19,3.96,3.99,3.92,3.79,3.82,3.69,2029,8.454167,60028.355167,56.27343,984.12207,-207.353729,1.67160716043967,2.35282189677041,2.34943840932406,-7.321035,789.950806,168.552063,85.801956,1190.891235,-1.290082,"CRUZINT"
5,16,40,28.365,3491.28,0.675989,-0.14289,0.677985,-0.250913,-0.9664,0.15215,-0.04058,3488.22,-0.091011,-0.697105,0.110641,-0.702509,-0.94976,0.25717,-0.01667,2.37,2.6,2.71,2.92,3.13,3.07,3.03,3.91,3.19,3.96,3.98,3.92,3.79,3.81,3.69,2032,8.466667,60028.367667,56.360378,983.841675,-207.405151,1.67192412199796,2.35391601977217,2.34828060652693,-7.308078,789.992371,168.478241,85.979965,1190.828247,-1.593642,"CRUZINT"
6,16,40,28.37,3491.3,0.67613,-0.142584,0.677707,-0.251459,-0.96683,0.13989,-0.04248,3488.24,-0.090685,-0.697334,0.108544,-0.702652,-0.95839,0.25671,-0.01596,2.37,2.6,2.71,2.92,3.13,3.07,3.03,3.9,3.19,3.95,3.98,3.92,3.78,3.81,3.69,2033,8.470833,60028.371833,56.370899,983.743896,-207.415741,1.67209933544709,2.35429872975378,2.34786261786422,-7.301761,790,168.453674,86.042053,1190.812988,-1.688711,"CRUZINT"
7,16,40,28.375,3491.32,0.676311,-0.142235,0.67743,-0.251915,-0.97196,0.13578,-0.04075,3488.26,-0.089186,-0.697485,0.107214,-0.702899,-0.96371,0.24336,-0.03362,2.37,2.6,2.71,2.92,3.13,3.07,3.03,3.9,3.19,3.95,3.98,3.92,3.78,3.8,3.69,2034,8.475,60028.376,56.380749,983.642944,-207.41832,1.67224878087847,2.35465923930798,2.34747195992584,-7.297012,790.017273,168.424973,86.096107,1190.791016,-1.768995,"CRUZINT"
8,16,40,28.381,3491.34,0.676494,-0.14189,0.677183,-0.252282,-0.97388,0.13654,-0.04497,3488.28,-0.087132,-0.697741,0.106507,-0.703009,-0.96034,0.25248,-0.03481,2.36,2.6,2.71,2.92,3.13,3.07,3.02,3.9,3.19,3.95,3.97,3.93,3.78,3.79,3.69,2036,8.483333,60028.384333,56.393444,983.442261,-207.426651,1.67254006472587,2.35538519477821,2.34668709471029,-7.285016,790.035583,168.376022,86.194908,1190.748657,-1.934167,"CRUZINT"
9,16,40,28.386,3491.36,0.676676,-0.141534,0.676985,-0.252524,-0.97103,0.14553,-0.04417,3488.3,-0.084882,-0.698417,0.105971,-0.702694,-0.94465,0.26568,-0.0114,2.36,2.6,2.71,2.92,3.13,3.07,3.02,3.9,3.19,3.95,3.97,3.92,3.78,3.79,3.69,2037,8.4875,60028.3885,56.388622,983.337402,-207.42128,1.67273125367981,2.35580697651117,2.34622655351615,-7.283243,790.058105,168.352905,86.245659,1190.729736,-2.02688,"CRUZINT"
10,16,40,28.392,3491.38,0.676854,-0.141131,0.676817,-0.252725,-0.96631,0.14875,-0.04667,3488.32,-0.082733,-0.699254,0.105318,-0.702216,-0.96221,0.25546,-0.00609,2.36,2.6,2.71,2.92,3.13,3.07,3.02,3.9,3.18,3.95,3.96,3.93,3.77,3.78,3.69,2038,8.491667,60028.392667,56.386513,983.22937,-207.420502,1.67292232076375,2.35620304177046,2.34579167875946,-7.280594,790.064331,168.329666,86.299385,1190.704346,-2.116792,"CRUZINT"
11,16,40,28.406,3491.4,0.677007,-0.140734,0.67668,-0.252903,-0.9645,0.14919,-0.0475,3488.34,-0.081269,-0.699995,0.10413,-0.701825,-0.94067,0.24988,-0.01454,2.36,2.6,2.71,2.92,3.13,3.07,3.01,3.9,3.18,3.95,3.96,3.94,3.77,3.78,3.7,2042,8.508333,60028.409333,56.346394,982.762024,-207.387878,1.67381012050319,2.35799855653984,2.34381480524822,-7.271665,790.113403,168.227234,86.51799,1190.606445,-2.501661,"CRUZINT"
12,16,40,28.411,3491.42,0.677137,-0.140363,0.676555,-0.253095,-0.9679,0.14992,-0.04478,3488.36,-0.081045,-0.700461,0.102333,-0.701651,-0.93729,0.23689,-0.00764,2.36,2.61,2.72,2.92,3.13,3.07,3,3.9,3.18,3.94,3.96,3.94,3.77,3.78,3.7,2043,8.5125,60028.4135,56.332191,982.66333,-207.386292,1.67399159870757,2.35837641779464,2.34339965764794,-7.268119,790.122864,168.209915,86.555679,1190.578613,-2.594549,"CRUZINT"
13,16,40,28.44,3491.44,0.677294,-0.140022,0.676396,-0.25329,-0.96983,0.15063,-0.04799,3488.38,-0.08137,-0.700686,0.100627,-0.701635,-0.94955,0.24304,0.00305,2.36,2.61,2.72,2.92,3.13,3.07,3,3.89,3.17,3.95,3.96,3.95,3.77,3.77,3.7,2050,8.541667,60028.442667,56.234367,982.075745,-207.425171,1.67528194230233,2.36027192921428,2.34123729277374,-7.246304,790.180054,168.111191,86.830635,1190.357422,-3.113354,"CRUZINT"
14,16,40,28.446,3491.46,0.677361,-0.139739,0.676285,-0.253563,-0.97159,0.15295,-0.04466,3488.4,-0.081638,-0.700955,0.099406,-0.70151,-0.96176,0.24942,0.00759,2.35,2.61,2.72,2.92,3.13,3.06,2.99,3.89,3.17,3.94,3.96,3.95,3.77,3.77,3.7,2051,8.545833,60028.446833,56.237148,982.022949,-207.442474,1.67537991482088,2.36042609146958,2.34106272267915,-7.24575,790.187256,168.105835,86.860863,1190.328735,-3.174997,"CRUZINT"
15,16,40,28.499,3491.48,0.677503,-0.139481,0.676125,-0.253752,-0.973,0.15351,-0.04663,3488.42,-0.081445,-0.701323,0.098921,-0.701233,-0.97198,0.24489,-0.00605,2.35,2.61,2.72,2.92,3.13,3.06,2.98,3.88,3.17,3.93,3.95,3.95,3.77,3.76,3.71,2064,8.6,60028.501,56.327873,981.279541,-207.621048,1.67628024134628,2.36245397819803,2.33884603657189,-7.153804,790.263184,168.18634,87.22187,1190.055298,-3.770461,"CRUZINT"
16,16,40,28.504,3491.5,0.677631,-0.139219,0.67601,-0.25386,-0.97443,0.15318,-0.04602,3488.44,-0.080731,-0.701611,0.098721,-0.701056,-0.97006,0.22927,-0.01794,2.35,2.61,2.72,2.92,3.13,3.06,2.98,3.88,3.16,3.93,3.95,3.96,3.77,3.76,3.71,2065,8.604167,60028.505167,56.340027,981.247498,-207.630142,1.67629586603354,2.36259100178594,2.33870566663951,-7.146599,790.276062,168.197784,87.237862,1190.046631,-3.813939,"CRUZINT"
17,16,40,28.522,3491.52,0.677804,-0.138974,0.675868,-0.25391,-0.96953,0.15226,-0.04808,3488.46,-0.080099,-0.70161,0.09819,-0.701203,-0.96854,0.23417,-0.01278,2.35,2.61,2.73,2.92,3.13,3.05,2.97,3.88,3.16,3.93,3.95,3.96,3.78,3.75,3.71,2070,8.625,60028.526,56.373497,981.124023,-207.675034,1.67652732288005,2.36293056843984,2.33831735845787,-7.100481,790.324707,168.247208,87.337639,1189.984863,-3.948885,"CRUZINT"
18,16,40,28.527,3491.54,0.678003,-0.138771,0.675689,-0.253967,-0.96544,0.15829,-0.04918,3488.48,-0.079756,-0.701663,0.098073,-0.701206,-0.97016,0.24367,-0.00724,2.35,2.61,2.73,2.92,3.13,3.06,2.96,3.87,3.16,3.93,3.95,3.96,3.78,3.75,3.72,2071,8.629167,60028.530167,56.37397,981.100281,-207.681351,1.67658141108501,2.36301919383734,2.33821732150631,-7.091531,790.334106,168.260773,87.353348,1189.975708,-3.979909,"CRUZINT"
19,16,40,28.557,3491.56,0.67801,-0.138471,0.675659,-0.254191,-0.96381,0.16598,-0.04771,3488.5,-0.079775,-0.701845,0.098405,-0.700975,-0.96484,0.25169,0.00483,2.34,2.61,2.73,2.92,3.13,3.05,2.95,3.87,3.15,3.92,3.95,3.97,3.78,3.75,3.72,2078,8.658333,60028.559333,56.250523,981.009277,-207.734818,1.67731660315835,2.36318085466558,2.33790055245338,-7.010732,790.401367,168.334549,87.443565,1189.912476,-4.10567,"CRUZINT"
20,16,40,28.578,3491.58,0.678109,-0.138382,0.675528,-0.254325,-0.96516,0.16544,-0.0496,3488.52,-0.079932,-0.701948,0.098324,-0.700866,-0.96122,0.24803,0.00368,2.34,2.61,2.73,2.92,3.13,3.05,2.94,3.87,3.15,3.92,3.95,3.97,3.79,3.75,3.72,2083,8.679167,60028.580167,56.149403,980.939758,-207.75795,1.67782642693006,2.36328233945378,2.33769088834712,-6.96554,790.440002,168.380798,87.492622,1189.873535,-4.163666,"CRUZINT"
21,16,40,28.623,3491.6,0.67807,-0.13834,0.675504,-0.254515,-0.96983,0.15888,-0.04916,3488.54,-0.08017,-0.702047,0.098268,-0.700747,-0.95578,0.23296,-0.00895,2.34,2.61,2.73,2.92,3.13,3.05,2.94,3.86,3.16,3.92,3.95,3.98,3.79,3.74,3.73,2094,8.725,60028.626,55.992329,980.863708,-207.854248,1.67850041915911,2.36326337539382,2.33756614505412,-6.861488,790.479431,168.494598,87.533157,1189.800171,-4.279897,"CRUZINT"
22,16,40,28.63,3491.62,0.67814,-0.138297,0.675367,-0.254714,-0.97412,0.15534,-0.0483,3488.56,-0.080495,-0.701924,0.097969,-0.700875,-0.95687,0.23539,-0.01179,2.34,2.61,2.73,2.92,3.13,3.05,2.93,3.86,3.16,3.92,3.95,3.98,3.79,3.74,3.73,2095,8.729167,60028.630167,55.986111,980.864746,-207.865082,1.67854402427044,2.36324581042377,2.3375743917092,-6.858525,790.480957,168.504898,87.539459,1189.796265,-4.29028,"CRUZINT"
23,16,40,28.635,3491.64,0.67821,-0.138293,0.675217,-0.254929,-0.97412,0.15625,-0.05108,3488.58,-0.080947,-0.701877,0.097986,-0.700868,-0.96118,0.24036,-0.0075,2.34,2.61,2.73,2.92,3.13,3.05,2.92,3.85,3.16,3.91,3.95,3.99,3.8,3.74,3.73,2097,8.7375,60028.6385,55.958508,980.859985,-207.889069,1.67866101908266,2.36317990600966,2.33761528738858,-6.852107,790.47998,168.522263,87.545601,1189.775391,-4.308097,"CRUZINT"
24,16,40,28.683,3491.66,0.67823,-0.138268,0.675141,-0.255091,-0.97034,0.15717,-0.04778,3488.6,-0.081231,-0.701797,0.097991,-0.700914,-0.95694,0.24248,-0.0064,2.34,2.61,2.73,2.92,3.13,3.06,2.92,3.85,3.16,3.91,3.95,3.99,3.81,3.73,3.73,2108,8.783333,60028.684333,55.928265,980.908936,-208.064011,1.67893507929311,2.3625360649739,2.33820072404582,-6.854564,790.475098,168.598053,87.593819,1189.681885,-4.368911,"CRUZINT"
25,16,40,28.688,3491.68,0.678388,-0.138218,0.674969,-0.255151,-0.96835,0.15524,-0.04825,3488.62,-0.081556,-0.701827,0.098177,-0.700821,-0.95536,0.23844,-0.00961,2.34,2.61,2.73,2.92,3.13,3.06,2.91,3.85,3.16,3.91,3.94,4,3.81,3.73,3.73,2109,8.7875,60028.6885,55.927715,980.924988,-208.093353,1.67892206702164,2.36240051078035,2.33833914871538,-6.860698,790.471008,168.601532,87.5895,1189.670166,-4.368855,"CRUZINT"
26,16,40,28.692,3491.7,0.678332,-0.138141,0.675024,-0.255197,-0.96849,0.15327,-0.05172,3488.64,-0.081907,-0.701825,0.098448,-0.700743,-0.9578,0.24416,-0.01092,2.34,2.61,2.74,2.92,3.13,3.06,2.9,3.85,3.16,3.91,3.94,4,3.81,3.73,3.74,2110,8.791667,60028.692667,55.934883,980.937805,-208.117584,1.67891692457411,2.36232148556993,2.33841932219071,-6.868229,790.46521,168.603531,87.594177,1189.660156,-4.382537,"CRUZINT"
27,16,40,28.742,3491.72,0.678418,-0.138107,0.674941,-0.255206,-0.96793,0.15306,-0.05148,3488.66,-0.082209,-0.701815,0.098632,-0.700692,-0.95752,0.24421,-0.00689,2.34,2.61,2.74,2.92,3.13,3.06,2.89,3.84,3.16,3.9,3.94,4,3.82,3.73,3.74,2122,8.841667,60028.742667,55.850895,981.087097,-208.369537,1.67921346079263,2.36133339881753,2.33934418991946,-6.954044,790.4375,168.596802,87.596916,1189.607178,-4.437807,"CRUZINT"
28,16,40,28.747,3491.74,0.678458,-0.138073,0.674904,-0.255216,-0.96805,0.15306,-0.05225,3488.68,-0.082725,-0.701784,0.098828,-0.700634,-0.95891,0.2482,-0.00565,2.34,2.61,2.74,2.91,3.13,3.06,2.87,3.84,3.16,3.9,3.94,3.99,3.83,3.73,3.74,2124,8.85,60028.751,55.820126,981.106323,-208.394806,1.67932391987273,2.36123386717485,2.33941998326654,-6.974745,790.432861,168.59436,87.598267,1189.605225,-4.447712,"CRUZINT"
29,16,40,28.752,3491.76,0.678416,-0.138137,0.674962,-0.25514,-0.96978,0.15142,-0.05355,3488.7,-0.083375,-0.701718,0.098803,-0.700628,-0.95663,0.2466,-0.00146,2.34,2.61,2.74,2.91,3.13,3.06,2.86,3.84,3.17,3.9,3.94,4,3.83,3.73,3.74,2125,8.854167,60028.755167,55.80283,981.109741,-208.406006,1.67934622617153,2.36119270558376,2.33945635895345,-6.977732,790.430664,168.58699,87.588493,1189.606812,-4.44472,"CRUZINT"
30,16,40,28.805,3491.78,0.678423,-0.138114,0.674958,-0.255145,-0.96962,0.14889,-0.05237,3488.72,-0.083845,-0.701735,0.098987,-0.700528,-0.95829,0.23781,-0.00764,2.34,2.61,2.74,2.9,3.14,3.06,2.86,3.83,3.17,3.9,3.94,3.99,3.84,3.72,3.75,2137,8.904167,60028.805167,55.568729,981.289368,-208.61972,1.67981902805152,2.36037688988747,2.34017046439924,-7.012005,790.394287,168.548264,87.488617,1189.593994,-4.531364,"CRUZINT"
31,16,40,28.81,3491.8,0.678396,-0.138399,0.67513,-0.254604,-0.96868,0.14771,-0.05392,3488.74,-0.084317,-0.701715,0.099073,-0.70048,-0.95766,0.24173,-0.00521,2.34,2.61,2.74,2.89,3.14,3.05,2.85,3.82,3.17,3.89,3.94,3.99,3.84,3.73,3.75,2139,8.9125,60028.8135,55.500477,981.321594,-208.65451,1.679959466476,2.36019083439043,2.34032619372689,-7.020439,790.384644,168.538223,87.461823,1189.591064,-4.530123,"CRUZINT"
32,16,40,28.815,3491.82,0.678407,-0.138361,0.675135,-0.254585,-0.97013,0.14971,-0.05158,3488.76,-0.084806,-0.701726,0.099142,-0.7004,-0.95176,0.25117,0.00051,2.34,2.61,2.74,2.88,3.14,3.05,2.85,3.82,3.17,3.89,3.94,3.99,3.84,3.72,3.75,2140,8.916667,60028.817667,55.469082,981.353455,-208.671432,1.68000480630405,2.3600998696122,2.34040737390633,-7.021392,790.383301,168.531693,87.441719,1189.591553,-4.542269,"CRUZINT"
33,16,40,28.843,3491.84,0.678417,-0.138306,0.675145,-0.254559,-0.97117,0.15093,-0.05277,3488.78,-0.085417,-0.70176,0.099308,-0.700268,-0.95557,0.25666,-0.00323,2.35,2.6,2.74,2.88,3.14,3.05,2.84,3.81,3.18,3.89,3.94,3.99,3.84,3.72,3.75,2147,8.945833,60028.846833,55.274654,981.544983,-208.796326,1.68024549678781,2.35931460793301,2.34114075450196,-7.044404,790.355225,168.508118,87.31559,1189.608521,-4.524734,"CRUZINT"
34,16,40,28.848,3491.86,0.678295,-0.138332,0.675331,-0.254376,-0.97205,0.1529,-0.04846,3488.8,-0.086008,-0.701678,0.0991,-0.700307,-0.96226,0.24133,-0.00793,2.34,2.6,2.74,2.87,3.14,3.04,2.83,3.8,3.18,3.88,3.94,3.99,3.85,3.73,3.75,2148,8.95,60028.851,55.268005,981.564209,-208.810837,1.6801822360542,2.35923652931697,2.34123260644812,-7.040906,790.355469,168.502441,87.290848,1189.613892,-4.517661,"CRUZINT"
35,16,40,28.878,3491.88,0.678301,-0.138286,0.675347,-0.254345,-0.96967,0.15213,-0.04932,3488.82,-0.086179,-0.701708,0.099422,-0.70021,-0.96101,0.22262,-0.02513,2.34,2.59,2.73,2.87,3.15,3.03,2.83,3.8,3.18,3.88,3.94,3.99,3.85,3.72,3.75,2155,8.979167,60028.880167,55.310429,981.648865,-208.896118,1.67953665762914,2.35899416494578,2.34161483704243,-7.051668,790.336304,168.498627,87.14727,1189.663086,-4.508091,"CRUZINT"
36,16,40,28.901,3491.9,0.67813,-0.138213,0.67557,-0.25425,-0.96966,0.15599,-0.04592,3488.84,-0.085614,-0.701641,0.099998,-0.700265,-0.95435,0.22607,-0.02565,2.33,2.59,2.73,2.87,3.15,3.02,2.83,3.79,3.18,3.88,3.94,3.99,3.85,3.72,3.75,2160,9,60028.901,55.361458,981.675293,-208.928543,1.67900583874424,2.35895254901208,2.34177077772403,-7.065789,790.328857,168.495239,87.043068,1189.678101,-4.510459,"CRUZINT"
37,16,40,28.906,3491.92,0.6781,-0.138223,0.675601,-0.25424,-0.96929,0.15485,-0.04925,3488.86,-0.085146,-0.701317,0.100184,-0.70062,-0.94777,0.24874,-0.01549,2.33,2.58,2.73,2.86,3.15,3.01,2.82,3.78,3.19,3.87,3.94,3.99,3.86,3.72,3.75,2162,9.008333,60028.909333,55.384716,981.664612,-208.940826,1.67877782395401,2.35901136238271,2.34176087279288,-7.066652,790.319824,168.499176,86.999268,1189.675903,-4.528445,"CRUZINT"
38,16,40,28.962,3491.94,0.67806,-0.138235,0.675638,-0.254241,-0.96957,0.15252,-0.04851,3488.88,-0.08495,-0.701046,0.100376,-0.700887,-0.94437,0.25921,-0.0146,2.32,2.58,2.73,2.86,3.15,3,2.81,3.77,3.19,3.87,3.94,3.99,3.86,3.72,3.75,2175,9.0625,60028.9635,55.433727,981.546326,-209.019882,1.67782496717813,2.35928148451245,2.34169402634379,-7.138471,790.278259,168.503433,86.770271,1189.612793,-4.622243,"CRUZINT"
39,16,40,28.967,3491.96,0.677975,-0.138289,0.675745,-0.254155,-0.96933,0.15349,-0.05066,3488.9,-0.08491,-0.700751,0.100369,-0.701187,-0.9451,0.25466,-0.00699,2.31,2.58,2.73,2.86,3.16,2.99,2.81,3.77,3.19,3.86,3.94,3.99,3.86,3.72,3.75,2176,9.066667,60028.967667,55.433529,981.537781,-209.025955,1.67774520389889,2.3593047684817,2.34168767775369,-7.146369,790.271729,168.502762,86.746727,1189.608521,-4.630184,"CRUZINT"
40,16,40,28.972,3491.98,0.677926,-0.138311,0.675779,-0.254184,-0.97299,0.15616,-0.049,3488.92,-0.085089,-0.70053,0.100391,-0.701384,-0.94695,0.24405,-0.00408,2.3,2.58,2.73,2.86,3.16,2.98,2.81,3.76,3.2,3.86,3.93,3.99,3.87,3.72,3.76,2178,9.075,60028.976,55.422855,981.511902,-209.041077,1.67768224349124,2.35933198823013,2.34167381345508,-7.155903,790.25946,168.494614,86.717522,1189.587158,-4.649316,"CRUZINT"
41,16,40,28.999,3492,0.677801,-0.138296,0.675868,-0.254288,-0.97091,0.15738,-0.05212,3488.94,-0.085305,-0.700362,0.100398,-0.701524,-0.95086,0.24311,-0.00276,2.29,2.58,2.74,2.85,3.16,2.97,2.8,3.76,3.2,3.86,3.94,3.99,3.87,3.72,3.76,2184,9.1,60029.001,55.416092,981.475159,-209.108139,1.67740764442808,2.35930373742431,2.34176028173418,-7.177516,790.223816,168.483536,86.629967,1189.539917,-4.702759,"CRUZINT"
42,16,40,29.004,3492.02,0.677734,-0.138299,0.675922,-0.254321,-0.97021,0.15602,-0.05014,3488.96,-0.085196,-0.700253,0.100337,-0.701656,-0.9556,0.24672,-0.00579,2.28,2.57,2.74,2.85,3.16,2.96,2.8,3.75,3.21,3.86,3.94,3.99,3.87,3.72,3.76,2185,9.104167,60029.005167,55.414211,981.460571,-209.123322,1.67729849687469,2.35928697922192,2.34180014131754,-7.18617,790.222839,168.48024,86.596962,1189.526611,-4.704892,"CRUZINT"
43,16,40,29.04,3492.04,0.677674,-0.138308,0.675967,-0.254355,-0.96973,0.15442,-0.04982,3488.98,-0.085152,-0.700189,0.100545,-0.701694,-0.95431,0.25065,-0.01088,2.28,2.57,2.74,2.85,3.16,2.95,2.79,3.75,3.21,3.85,3.93,3.98,3.87,3.72,3.76,2194,9.141667,60029.042667,55.400444,981.427795,-209.203537,1.67687909409456,2.35919690217242,2.34197877847849,-7.225821,790.186829,168.506516,86.460388,1189.472046,-4.750634,"CRUZINT"
44,16,40,29.045,3492.06,0.677601,-0.138328,0.676032,-0.254369,-0.97025,0.15356,-0.04991,3489,-0.085077,-0.699929,0.100501,-0.701969,-0.95733,0.25007,-0.01132,2.27,2.57,2.74,2.85,3.17,2.94,2.78,3.75,3.21,3.85,3.94,3.98,3.87,3.72,3.76,2195,9.145833,60029.046833,55.391117,981.415039,-209.208328,1.67688399955015,2.35923430583137,2.34194032691877,-7.231913,790.176453,168.505035,86.452713,1189.468506,-4.762058,"CRUZINT"
45,16,40,29.078,3492.08,0.677537,-0.13834,0.676087,-0.254385,-0.96875,0.15245,-0.04756,3489.02,-0.085127,-0.699869,0.100628,-0.702004,-0.9567,0.24969,-0.01212,2.26,2.58,2.75,2.85,3.16,2.93,2.77,3.75,3.21,3.85,3.94,3.98,3.87,3.72,3.77,2203,9.179167,60029.080167,55.357697,981.392395,-209.219727,1.67666600001783,2.35927112403426,2.34194937447786,-7.288901,790.155396,168.522278,86.354851,1189.447754,-4.777176,"CRUZINT"
46,16,40,29.118,3492.1,0.677334,-0.138282,0.676298,-0.254397,-0.96936,0.15393,-0.04736,3489.04,-0.085138,-0.699789,0.100713,-0.702071,-0.95541,0.24402,-0.01733,2.26,2.58,2.75,2.85,3.16,2.92,2.76,3.74,3.22,3.85,3.94,3.98,3.87,3.73,3.77,2213,9.220833,60029.121833,55.442524,981.391663,-209.291382,1.67608398845045,2.35912426469944,2.34221832302904,-7.357549,790.120361,168.515701,86.271873,1189.429932,-4.77921,"CRUZINT"
47,16,40,29.123,3492.12,0.677276,-0.138235,0.676375,-0.254373,-0.97098,0.15763,-0.04686,3489.06,-0.084969,-0.699456,0.100466,-0.702459,-0.95367,0.24531,-0.01634,2.24,2.59,2.76,2.86,3.15,2.92,2.76,3.74,3.22,3.84,3.94,3.98,3.88,3.73,3.77,2214,9.225,60029.126,55.450169,981.400024,-209.300674,1.67604661585851,2.35908934065254,2.34226107348114,-7.361768,790.111877,168.515839,86.267868,1189.426025,-4.784471,"CRUZINT"
48,16,40,29.128,3492.14,0.677227,-0.138222,0.676428,-0.254368,-0.97049,0.1573,-0.04919,3489.08,-0.084862,-0.69936,0.100726,-0.70253,-0.95229,0.25204,-0.00827,2.23,2.59,2.76,2.86,3.15,2.91,2.75,3.74,3.22,3.84,3.94,3.98,3.88,3.73,3.77,2215,9.229167,60029.130167,55.450771,981.405151,-209.314133,1.67605175975254,2.3590743272079,2.34227501724405,-7.367851,790.110718,168.515961,86.270485,1189.431519,-4.791584,"CRUZINT"
49,16,40,29.177,3492.16,0.677045,-0.138138,0.676579,-0.254497,-0.97107,0.1574,-0.04813,3489.1,-0.084839,-0.699358,0.100864,-0.702515,-0.9521,0.2568,-0.00581,2.22,2.59,2.77,2.86,3.14,2.9,2.75,3.74,3.22,3.84,3.94,3.98,3.88,3.73,3.77,2227,9.279167,60029.180167,55.398621,981.422974,-209.380539,1.67624549641024,2.35886881134777,2.34244007331075,-7.416405,790.091736,168.52771,86.275002,1189.407837,-4.822292,"CRUZINT"
50,16,40,29.182,3492.18,0.677011,-0.138149,0.676607,-0.254506,-0.96966,0.15397,-0.04899,3489.12,-0.084917,-0.699361,0.100952,-0.70249,-0.95033,0.25208,-0.01134,2.21,2.59,2.78,2.87,3.13,2.9,2.74,3.73,3.22,3.84,3.94,3.98,3.88,3.73,3.77,2228,9.283333,60029.184333,55.398903,981.423096,-209.387405,1.67626898271829,2.35884817417112,2.34245579901142,-7.41275,790.088867,168.523071,86.28199,1189.40271,-4.826815,"CRUZINT"
51,16,40,29.202,3492.2,0.676839,-0.138186,0.676804,-0.254421,-0.97095,0.15203,-0.04752,3489.14,-0.085003,-0.699368,0.101043,-0.702459,-0.95262,0.24674,-0.0117,2.19,2.6,2.78,2.88,3.12,2.89,2.74,3.73,3.23,3.84,3.94,3.98,3.88,3.72,3.77,2233,9.304167,60029.205167,55.411285,981.442261,-209.410309,1.67632874053229,2.35874317992832,2.34254831067697,-7.431479,790.080933,168.517288,86.310806,1189.393433,-4.836879,"CRUZINT"
52,16,40,29.207,3492.22,0.676796,-0.138174,0.676856,-0.254402,-0.96992,0.15601,-0.04698,3489.16,-0.084722,-0.699169,0.100413,-0.702781,-0.95534,0.2455,-0.01332,2.18,2.6,2.78,2.89,3.1,2.89,2.74,3.73,3.23,3.84,3.94,3.98,3.88,3.73,3.77,2234,9.308333,60029.209333,55.415569,981.434204,-209.415955,1.67632933542758,2.35873654871005,2.34255481960053,-7.427976,790.075378,168.515884,86.316338,1189.391235,-4.834043,"CRUZINT"
53,16,40,29.238,3492.24,0.676747,-0.138189,0.676892,-0.254431,-0.96955,0.15641,-0.04546,3489.18,-0.084673,-0.699205,0.100488,-0.702741,-0.95171,0.24695,-0.01819,2.18,2.6,2.79,2.9,3.09,2.89,2.73,3.73,3.23,3.83,3.94,3.98,3.88,3.72,3.77,2241,9.3375,60029.2385,55.469791,981.426392,-209.444107,1.67629990201316,2.3587278685754,2.34256967066608,-7.44837,790.076477,168.509659,86.362984,1189.388428,-4.852382,"CRUZINT"
54,16,40,29.243,3492.26,0.676553,-0.13822,0.677055,-0.254496,-0.97222,0.15609,-0.04654,3489.2,-0.084392,-0.698668,0.100649,-0.703286,-0.95258,0.25591,-0.01575,2.17,2.61,2.79,2.91,3.08,2.88,2.73,3.73,3.23,3.83,3.94,3.98,3.88,3.73,3.77,2243,9.345833,60029.246833,55.480503,981.432007,-209.464432,1.676354044818,2.3587034899736,2.3425827109982,-7.44445,790.074768,168.509033,86.388626,1189.383179,-4.875691,"CRUZINT"
55,16,40,29.278,3492.28,0.676507,-0.138267,0.67707,-0.254554,-0.97253,0.15608,-0.04527,3489.22,-0.084322,-0.698669,0.100763,-0.703277,-0.95135,0.25516,-0.01922,2.16,2.62,2.8,2.92,3.07,2.88,2.72,3.73,3.23,3.82,3.94,3.98,3.88,3.73,3.77,2251,9.379167,60029.280167,55.684441,981.439209,-209.55809,1.67600965343717,2.3585625878559,2.34279574062385,-7.46266,790.101563,168.498581,86.494644,1189.378418,-4.907646,"CRUZINT"
56,16,40,29.283,3492.3,0.676391,-0.138367,0.677238,-0.25436,-0.97133,0.1533,-0.04494,3489.24,-0.084186,-0.698649,0.101008,-0.703277,-0.95016,0.24114,-0.02434,2.15,2.63,2.81,2.93,3.07,2.88,2.72,3.73,3.24,3.82,3.94,3.98,3.88,3.73,3.77,2252,9.383333,60029.284333,55.721283,981.448853,-209.57016,1.67593833522617,2.35850458271739,2.34286866293807,-7.457347,790.101135,168.497574,86.510757,1189.376587,-4.903866,"CRUZINT"
57,16,40,29.34,3492.32,0.676389,-0.138356,0.67724,-0.254365,-0.96988,0.15423,-0.04707,3489.26,-0.08381,-0.698533,0.101162,-0.703416,-0.95503,0.24193,-0.01744,2.15,2.64,2.81,2.94,3.06,2.87,2.71,3.73,3.24,3.81,3.94,3.97,3.88,3.73,3.77,2266,9.441667,60029.342667,56.394974,981.560059,-209.786469,1.67478174428577,2.35793612853783,2.34367749823156,-7.494795,790.077332,168.558197,86.848953,1189.383545,-4.936983,"CRUZINT"
58,16,40,29.345,3492.34,0.676379,-0.138355,0.677251,-0.254362,-0.97109,0.15627,-0.04562,3489.28,-0.083524,-0.698454,0.10141,-0.703493,-0.95989,0.25764,-0.01848,2.15,2.64,2.82,2.95,3.05,2.87,2.71,3.73,3.24,3.81,3.93,3.97,3.88,3.74,3.77,2267,9.445833,60029.346833,56.477478,981.573792,-209.815186,1.67459962395294,2.35785403217031,2.34379720209488,-7.494197,790.07605,168.565765,86.880058,1189.392212,-4.92879,"CRUZINT"
59,16,40,29.36,3492.36,0.676223,-0.13833,0.677379,-0.254452,-0.97262,0.15791,-0.04571,3489.3,-0.08302,-0.69817,0.10185,-0.703771,-0.96116,0.26003,-0.03528,2.14,2.65,2.82,2.96,3.04,2.87,2.71,3.73,3.24,3.81,3.93,3.96,3.88,3.75,3.77,2271,9.4625,60029.3635,56.883179,981.661621,-209.923737,1.6736615474308,2.35756646986255,2.34427739873457,-7.502445,790.098328,168.574371,87.014099,1189.435059,-4.922114,"CRUZINT"
60,16,40,29.365,3492.38,0.676213,-0.138356,0.677381,-0.254458,-0.97243,0.15417,-0.04733,3489.32,-0.082483,-0.697985,0.102528,-0.703919,-0.96613,0.24644,-0.04778,2.13,2.65,2.83,2.97,3.04,2.87,2.71,3.73,3.24,3.8,3.92,3.96,3.88,3.75,3.78,2272,9.466667,60029.367667,57.012623,981.684265,-209.951309,1.67331803970215,2.35745595410534,2.34445802165308,-7.506849,790.104187,168.578094,87.043526,1189.436523,-4.91007,"CRUZINT"
61,16,40,29.422,3492.4,0.676115,-0.138388,0.677448,-0.254522,-0.96995,0.1551,-0.0467,3489.34,-0.081579,-0.697695,0.103422,-0.70418,-0.9593,0.23861,-0.04307,2.13,2.66,2.83,2.98,3.04,2.87,2.7,3.73,3.24,3.8,3.93,3.97,3.87,3.75,3.78,2286,9.525,60029.426,59.294033,981.89502,-210.424286,1.66694451198301,2.35627471141901,2.34689771145335,-7.420075,789.998535,168.456863,87.495537,1189.635132,-4.640945,"CRUZINT"
62,16,40,29.427,3492.42,0.676079,-0.138473,0.677443,-0.254583,-0.96699,0.15695,-0.04935,3489.36,-0.080219,-0.69719,0.10468,-0.704651,-0.95257,0.23678,-0.04163,2.13,2.66,2.84,2.99,3.03,2.87,2.7,3.73,3.24,3.8,3.94,3.98,3.85,3.75,3.78,2287,9.529167,60029.430167,59.471992,981.890564,-210.441345,1.66640228222324,2.35626933980166,2.34700644042685,-7.409945,789.981018,168.450684,87.519844,1189.665894,-4.599215,"CRUZINT"
63,16,40,29.432,3492.44,0.676002,-0.138623,0.677441,-0.254712,-0.96606,0.15735,-0.04799,3489.38,-0.078579,-0.696348,0.10644,-0.705404,-0.96601,0.229,-0.04288,2.12,2.67,2.84,3.01,3.03,2.87,2.71,3.73,3.24,3.79,3.95,3.98,3.84,3.75,3.78,2288,9.533333,60029.434333,59.645527,981.889282,-210.450851,1.66584890974561,2.35627874317153,2.34710192015621,-7.410193,789.976624,168.443954,87.5355,1189.696167,-4.559375,"CRUZINT"
64,16,40,29.458,3492.46,0.675884,-0.138828,0.67744,-0.254918,-0.97077,0.15482,-0.04776,3489.4,-0.07682,-0.695041,0.108171,-0.706623,-0.98896,0.24824,-0.0411,2.12,2.67,2.85,3.02,3.02,2.87,2.71,3.73,3.24,3.79,3.95,3.97,3.82,3.75,3.78,2294,9.558333,60029.459333,60.705292,981.911255,-210.395401,1.66241482830922,2.35651263838071,2.34750541472343,-7.408727,789.940247,168.442429,87.609833,1189.916016,-4.271406,"CRUZINT"
65,16,40,29.463,3492.48,0.675757,-0.139117,0.677393,-0.255223,-0.97588,0.15548,-0.0392,3489.42,-0.07536,-0.693215,0.10966,-0.708342,-0.99888,0.26203,-0.0598,2.1,2.68,2.85,3.02,3.01,2.87,2.71,3.73,3.24,3.79,3.96,3.98,3.81,3.75,3.77,2295,9.5625,60029.4635,60.895691,981.944275,-210.369034,1.66180134922413,2.3565526578014,2.34757681999146,-7.404624,789.937805,168.454285,87.621948,1189.968018,-4.219496,"CRUZINT"
66,16,40,29.522,3492.5,0.675459,-0.139304,0.677652,-0.255221,-0.96772,0.15484,-0.0354,3489.44,-0.074284,-0.690803,0.111139,-0.710578,-1.00786,0.26372,-0.08175,2.09,2.68,2.86,3.03,3.01,2.87,2.71,3.73,3.24,3.79,3.97,3.97,3.81,3.76,3.77,2310,9.625,60029.526,65.0205,983.322693,-210.040436,1.64494473321262,2.35478073560767,2.35212028020062,-7.212916,789.966248,169.036758,86.793373,1190.853271,-3.064281,"CRUZINT"
67,16,40,29.527,3492.52,0.675527,-0.139112,0.677731,-0.254934,-0.96411,0.15177,-0.03566,3489.46,-0.073816,-0.687549,0.1129,-0.713499,-1.01821,0.26826,-0.11637,2.09,2.69,2.86,3.04,3,2.87,2.71,3.73,3.24,3.79,3.99,3.96,3.8,3.76,3.76,2311,9.629167,60029.530167,65.448212,983.483521,-210.062485,1.64351761755899,2.35444687439857,2.35266300270748,-7.196399,789.965881,169.111618,86.793373,1190.853271,-3.064281,"CRUZINT"
68,16,40,29.532,3492.54,0.675637,-0.13871,0.677929,-0.254336,-0.96931,0.15091,-0.04944,3489.48,-0.072937,-0.682926,0.116127,-0.7175,-1.00799,0.26814,-0.15121,2.09,2.69,2.86,3.05,2.99,2.87,2.71,3.73,3.24,3.78,3.99,3.96,3.81,3.77,3.75,2312,9.633333,60029.534333,65.905548,983.655762,-210.089325,1.64198974243373,2.35407876287337,2.35325024920641,-7.16758,789.957642,169.178604,86.793373,1190.853271,-3.064281,"CRUZINT"
69,16,40,29.583,3492.56,0.675667,-0.138437,0.678138,-0.253847,-0.97325,0.15878,-0.05069,3489.5,-0.070817,-0.67692,0.121589,-0.722482,-1.00523,0.27192,-0.17126,2.08,2.7,2.87,3.05,2.99,2.87,2.71,3.73,3.24,3.78,3.99,3.96,3.81,3.77,3.74,2324,9.683333,60029.584333,73.632095,985.949707,-210.815048,1.60224966805081,2.34678995698566,2.36460987971814,-6.984916,789.661377,169.991577,82.882042,1191.96814,-1.08858,"CRUZINT"
70,16,40,29.588,3492.58,0.67563,-0.138422,0.678284,-0.253564,-0.97096,0.16514,-0.05544,3489.52,-0.067247,-0.669944,0.129386,-0.727951,-1.01692,0.27241,-0.18649,2.08,2.71,2.87,3.06,2.99,2.87,2.71,3.73,3.24,3.78,4,3.96,3.82,3.78,3.74,2325,9.6875,60029.5885,74.416451,986.239624,-210.886871,1.59848648315344,2.34586463285806,2.3657576469392,-6.976454,789.623535,170.042618,82.558846,1192.034424,-0.953722,"CRUZINT"
71,16,40,29.592,3492.6,0.675479,-0.138483,0.678332,-0.253804,-0.97149,0.17114,-0.04456,3489.54,-0.062566,-0.66185,0.138939,-0.733986,-1.02134,0.2756,-0.21095,2.07,2.71,2.87,3.07,2.98,2.87,2.71,3.73,3.24,3.78,4.01,3.96,3.83,3.78,3.74,2326,9.691667,60029.592667,75.199585,986.526245,-210.952606,1.59465280547921,2.3449366508666,2.36688316881169,-6.97451,789.584961,170.090591,82.213516,1192.085327,-0.829354,"CRUZINT"
72,16,40,29.638,3492.62,0.675357,-0.138829,0.678306,-0.254008,-0.97145,0.17643,-0.04642,3489.56,-0.057324,-0.652507,0.149738,-0.740627,-1.00584,0.28519,-0.22914,2.07,2.71,2.88,3.07,2.98,2.87,2.71,3.73,3.24,3.78,4.02,3.95,3.83,3.79,3.73,2337,9.7375,60029.6385,85.098518,991.079468,-211.759445,1.54755324376847,2.3304787111334,2.38136942539102,-7.217807,789.130554,170.402634,78.29496,1192.686646,0.383728,"CRUZINT"
73,16,40,29.643,3492.64,0.675123,-0.139351,0.678274,-0.254432,-0.96504,0.17554,-0.04445,3489.58,-0.052037,-0.642128,0.161306,-0.747626,-0.99817,0.31313,-0.22857,2.06,2.71,2.88,3.08,2.98,2.87,2.71,3.73,3.24,3.79,4.02,3.96,3.84,3.79,3.73,2339,9.745833,60029.646833,87.3582,991.573059,-211.961777,1.53733527526355,2.32829115488765,2.38297692546986,-7.287597,789.031921,170.416489,77.561134,1192.78772,0.581738,"CRUZINT"
74,16,40,29.662,3492.66,0.674749,-0.139934,0.678322,-0.254973,-0.95825,0.16736,-0.04762,3489.6,-0.0465,-0.630812,0.174173,-0.754704,-0.99937,0.33079,-0.23722,2.06,2.72,2.88,3.08,2.98,2.87,2.71,3.74,3.25,3.79,4.03,3.96,3.85,3.8,3.73,2343,9.7625,60029.6635,91.855728,993.770447,-212.190918,1.51710432749304,2.32121544144598,2.38828698303876,-7.482015,788.840698,170.40538,76.17691,1193.003784,0.915733,"CRUZINT"
75,16,40,29.668,3492.68,0.674251,-0.140544,0.678538,-0.25538,-0.95543,0.15461,-0.04905,3489.62,-0.041018,-0.618857,0.187808,-0.761618,-0.98945,0.33402,-0.2398,2.06,2.72,2.89,3.08,2.98,2.88,2.71,3.74,3.25,3.81,4.04,3.96,3.86,3.8,3.72,2345,9.770833,60029.671833,94.030357,994.844055,-212.297195,1.50714867502609,2.31758927243514,2.39074329145123,-7.584758,788.737366,170.38884,75.467224,1193.095581,1.078362,"CRUZINT"
76,16,40,29.723,3492.7,0.673727,-0.141061,0.678872,-0.255591,-0.96228,0.13843,-0.04919,3489.64,-0.03588,-0.606238,0.201602,-0.768469,-0.98083,0.33925,-0.23155,2.06,2.72,2.89,3.09,2.98,2.89,2.72,3.75,3.26,3.83,4.05,3.95,3.86,3.81,3.73,2358,9.825,60029.726,108.820343,1003.158325,-212.844635,1.44150603724377,2.28996297496413,2.40569024005815,-8.337018,788.190552,170.010513,71.523277,1193.724243,1.5775,"CRUZINT"
77,16,40,29.728,3492.72,0.673097,-0.141449,0.679333,-0.255812,-0.96599,0.12988,-0.0508,3489.66,-0.030655,-0.593124,0.215233,-0.775202,-0.95328,0.35793,-0.2308,2.06,2.72,2.89,3.09,2.98,2.91,2.73,3.75,3.26,3.85,4.05,3.95,3.87,3.81,3.73,2359,9.829167,60029.730167,109.527489,1003.941528,-213.024948,1.43794017433773,2.28715366067979,2.40755927973943,-8.404705,788.156006,169.966461,71.233398,1193.768066,1.615912,"CRUZINT"
78,16,40,29.733,3492.74,0.672406,-0.141671,0.679948,-0.255872,-0.9703,0.12833,-0.04914,3489.68,-0.025027,-0.579581,0.22938,-0.781565,-0.93753,0.37095,-0.23821,2.05,2.73,2.89,3.09,2.98,2.92,2.75,3.76,3.26,3.87,4.06,3.95,3.87,3.81,3.73,2360,9.833333,60029.734333,109.951645,1005.22052,-213.556931,1.4353357423218,2.28236203560471,2.41163484239432,-8.465119,788.120178,169.921478,70.950424,1193.811523,1.656109,"CRUZINT"
79,16,40,29.783,3492.76,0.671778,-0.141665,0.680671,-0.2556,-0.96922,0.13417,-0.04518,3489.7,-0.018002,-0.56598,0.243418,-0.787458,-0.93405,0.38818,-0.26186,2.05,2.73,2.89,3.1,2.97,2.94,2.77,3.77,3.25,3.88,4.06,3.94,3.88,3.82,3.73,2372,9.883333,60029.784333,124.494392,1014.013794,-212.010437,1.37105728842006,2.25442311303518,2.41805434322696,-9.086486,787.571045,169.339767,67.866768,1194.276245,1.889191,"CRUZINT"
80,16,40,29.789,3492.78,0.671151,-0.141398,0.681519,-0.255137,-0.97269,0.1364,-0.03974,3489.72,-0.01244,-0.552052,0.25769,-0.792893,-0.91091,0.39603,-0.28545,2.05,2.73,2.9,3.1,2.97,2.96,2.79,3.77,3.25,3.89,4.06,3.94,3.89,3.82,3.72,2374,9.891667,60029.792667,126.687241,1015.730408,-211.815979,1.36112323429727,2.24871987617767,2.41969161301991,-9.17012,787.468323,169.244797,67.403,1194.368286,1.962261,"CRUZINT"
81,16,40,29.794,3492.8,0.670508,-0.141042,0.682429,-0.254592,-0.97553,0.13838,-0.03266,3489.74,-0.006498,-0.537824,0.271731,-0.798039,-0.86759,0.37694,-0.27973,2.05,2.73,2.9,3.1,2.97,2.98,2.82,3.78,3.25,3.91,4.06,3.95,3.89,3.82,3.72,2375,9.895833,60029.796833,127.772049,1016.568787,-211.653809,1.35615972543707,2.24608946442556,2.42022087426291,-9.208901,787.428467,169.19487,67.173782,1194.422852,1.9842,"CRUZINT"
82,16,40,29.838,3492.82,0.669858,-0.140511,0.683397,-0.254,-0.97736,0.14244,-0.02525,3489.76,-0.001381,-0.523895,0.285385,-0.802551,-0.88611,0.42916,-0.2723,2.05,2.74,2.9,3.1,2.97,2.99,2.85,3.79,3.24,3.91,4.06,3.94,3.9,3.82,3.72,2385,9.9375,60029.8385,138.22673,1024.508911,-210.101746,1.30805645542516,2.21934211441536,2.42409475746054,-9.501616,786.998779,168.726486,65.042236,1194.708496,2.201999,"CRUZINT"
83,16,40,29.842,3492.84,0.669313,-0.139821,0.684307,-0.253364,-0.97698,0.146,-0.01756,3489.78,0.004187,-0.51017,0.298878,-0.806462,-0.85311,0.41903,-0.26345,2.05,2.74,2.9,3.11,2.97,3.01,2.87,3.8,3.23,3.92,4.06,3.94,3.9,3.83,3.72,2386,9.941667,60029.842667,139.171448,1025.369263,-209.903961,1.30360560160274,2.21656519027895,2.42452037767562,-9.531418,786.961426,168.68602,64.863297,1194.746948,2.231076,"CRUZINT"
84,16,40,29.857,3492.86,0.668825,-0.139163,0.685153,-0.25273,-0.97028,0.15088,-0.02534,3489.8,0.009038,-0.496528,0.312119,-0.809913,-0.85545,0.43073,-0.27773,2.04,2.74,2.9,3.11,2.97,3.02,2.88,3.81,3.23,3.92,4.05,3.94,3.9,3.83,3.72,2390,9.958333,60029.859333,142.890579,1028.825928,-209.086838,1.28575161840951,2.20542269736067,2.42584312095366,-9.659307,786.788574,168.505936,64.113129,1194.918579,2.31258,"CRUZINT"
85,16,40,29.878,3492.88,0.668315,-0.138571,0.685979,-0.252162,-0.96896,0.15496,-0.01542,3489.82,0.014548,-0.483502,0.324689,-0.812768,-0.81907,0.45968,-0.2839,2.05,2.74,2.9,3.11,2.97,3.02,2.89,3.82,3.21,3.92,4.05,3.94,3.9,3.83,3.72,2395,9.979167,60029.880167,147.328003,1033.182861,-207.939865,1.26397086675517,2.19112567467338,2.42729602886423,-9.791079,786.594116,168.327911,63.200779,1195.096558,2.508965,"CRUZINT"
86,16,40,29.883,3492.9,0.667705,-0.138034,0.686882,-0.251612,-0.96641,0.15951,-0.01118,3489.84,0.019258,-0.470998,0.337031,-0.814985,-0.79482,0.46835,-0.30223,2.05,2.74,2.9,3.11,2.98,3.02,2.91,3.83,3.2,3.92,4.05,3.94,3.9,3.83,3.72,2396,9.983333,60029.884333,148.188828,1034.060303,-207.667084,1.2596874896346,2.1882952170824,2.42749142315243,-9.810642,786.565857,168.29718,63.031227,1195.130981,2.555223,"CRUZINT"
87,16,40,29.942,3492.92,0.667072,-0.137637,0.687755,-0.251125,-0.97184,0.16335,-0.00966,3489.86,0.024621,-0.459075,0.34905,-0.816583,-0.77162,0.50924,-0.30694,2.05,2.74,2.9,3.11,2.98,3.01,2.92,3.83,3.19,3.92,4.04,3.93,3.9,3.83,3.72,2410,10.041667,60029.942667,158.896988,1046.229614,-203.670746,1.20494469737665,2.14952568258478,2.42930754773509,-10.163803,786.421448,168.018234,61.067539,1195.802368,3.304269,"CRUZINT"
88,16,40,29.948,3492.94,0.666432,-0.137266,0.688642,-0.250596,-0.97475,0.16605,-0.00631,3489.88,0.029194,-0.447658,0.360794,-0.817666,-0.76463,0.52089,-0.31022,2.05,2.74,2.9,3.11,2.98,3,2.93,3.83,3.19,3.93,4.04,3.93,3.9,3.83,3.72,2412,10.05,60029.951,160.247803,1047.951538,-203.000885,1.19764456899372,2.14411542860205,2.4293336340768,-10.207976,786.394287,167.99913,60.813637,1195.901367,3.445521,"CRUZINT"
89,16,40,29.953,3492.96,0.665811,-0.136948,0.689499,-0.250064,-0.97154,0.16434,-0.00872,3489.9,0.03346,-0.436422,0.372385,-0.81838,-0.72925,0.50131,-0.30866,2.06,2.74,2.9,3.11,2.98,3,2.94,3.84,3.18,3.93,4.04,3.93,3.9,3.83,3.72,2413,10.054167,60029.955167,161.012268,1049.333008,-203.094193,1.19369796608408,2.13893512208868,2.431375306586,-10.225716,786.380005,167.987503,60.670605,1195.956299,3.521943,"CRUZINT"
90,16,40,29.999,3492.98,0.665168,-0.136761,0.690332,-0.249579,-0.97185,0.16511,-0.01826,3489.92,0.037509,-0.425611,0.383418,-0.818803,-0.73179,0.54333,-0.32108,2.06,2.74,2.9,3.11,2.98,3.01,2.95,3.84,3.17,3.93,4.04,3.93,3.89,3.83,3.71,2424,10.1,60030.001,167.679367,1058.471924,-199.253372,1.1555285829832,2.10978921892037,2.4302572152987,-10.35958,786.251038,167.88562,59.16877,1196.525024,4.486471,"CRUZINT"
91,16,40,30.004,3493,0.664511,-0.13666,0.691094,-0.249273,-0.97613,0.17071,-0.00989,3489.94,0.040897,-0.41526,0.393879,-0.818991,-0.72112,0.55589,-0.32267,2.06,2.74,2.9,3.11,2.98,3.01,2.96,3.85,3.16,3.93,4.04,3.93,3.9,3.83,3.72,2425,10.104167,60030.005167,168.225586,1059.281616,-198.915543,1.15226556856949,2.10711234776973,2.43019525350268,-10.371874,786.237549,167.875305,59.03767,1196.55896,4.580171,"CRUZINT"
92,16,40,30.018,3493.02,0.663963,-0.136587,0.69173,-0.249013,-0.97872,0.17332,-0.01134,3489.96,0.044112,-0.404994,0.404112,-0.818979,-0.68021,0.57755,-0.30652,2.06,2.74,2.9,3.11,2.98,3.01,2.97,3.85,3.15,3.93,4.04,3.93,3.9,3.83,3.72,2429,10.120833,60030.021833,170.383926,1062.546021,-197.75647,1.1397082536759,2.09600991258394,2.43046087255489,-10.427019,786.183716,167.840836,58.567131,1196.717163,4.979219,"CRUZINT"
93,16,40,30.038,3493.04,0.663444,-0.136628,0.692262,-0.248895,-0.98099,0.16956,-0.00785,3489.98,0.046494,-0.395114,0.413485,-0.818995,-0.67803,0.59633,-0.29025,2.07,2.74,2.9,3.11,2.98,3.02,2.97,3.86,3.15,3.93,4.04,3.93,3.89,3.83,3.71,2433,10.1375,60030.0385,171.197708,1066.851074,-197.387604,1.13192963129655,2.08113647917202,2.4373922181792,-10.478142,786.120667,167.822662,58.07848,1196.891113,5.504109,"CRUZINT"
94,16,40,30.043,3493.06,0.662877,-0.136785,0.692751,-0.248957,-0.97205,0.1671,-0.00509,3490,0.048483,-0.385926,0.422154,-0.818839,-0.67972,0.62013,-0.30144,2.07,2.74,2.9,3.11,2.98,3.02,2.98,3.86,3.14,3.93,4.04,3.93,3.89,3.83,3.72,2435,10.145833,60030.046833,171.984482,1068.401123,-196.715729,1.12655455494596,2.07610004734594,2.43752056646042,-10.491729,786.084412,167.816971,57.80505,1197.006592,5.784009,"CRUZINT"
95,16,40,30.08,3493.08,0.662282,-0.136993,0.693305,-0.248885,-0.96735,0.16689,-0.00089,3490.02,0.050155,-0.377275,0.430822,-0.818254,-0.65653,0.61173,-0.32302,2.07,2.74,2.9,3.11,2.98,3.02,2.98,3.86,3.14,3.93,4.04,3.93,3.89,3.83,3.72,2443,10.179167,60030.080167,174.686035,1074.270142,-193.779205,1.10660836773191,2.05716229310792,2.43764372512998,-10.615417,785.981445,167.873306,56.801426,1197.347168,6.942619,"CRUZINT"
96,16,40,30.085,3493.1,0.66171,-0.137132,0.693848,-0.248816,-0.9729,0.16748,0.0052,3490.04,0.051597,-0.368775,0.439588,-0.817377,-0.64457,0.63679,-0.33395,2.07,2.75,2.9,3.11,2.98,3.03,2.99,3.86,3.14,3.93,4.04,3.93,3.89,3.83,3.72,2445,10.1875,60030.0885,175.397537,1075.815674,-193.030472,1.10136949189432,2.05206711378897,2.43762876897229,-10.652273,785.959473,167.902206,56.531906,1197.448364,7.266098,"CRUZINT"
97,16,40,30.142,3493.12,0.661229,-0.13723,0.694369,-0.248588,-0.97149,0.16469,0.00014,3490.06,0.053028,-0.360412,0.448196,-0.81634,-0.63484,0.65991,-0.33587,2.06,2.75,2.89,3.1,2.99,3.03,2.99,3.86,3.14,3.93,4.04,3.93,3.89,3.83,3.72,2458,10.241667,60030.142667,179.290451,1085.927979,-188.233551,1.06926153296257,2.01811921154452,2.43831922431613,-10.812043,785.817871,168.167572,54.730457,1197.995361,9.376916,"CRUZINT"
98,16,40,30.147,3493.14,0.660776,-0.137374,0.694895,-0.248241,-0.96232,0.1619,-0.00281,3490.08,0.054717,-0.352359,0.456345,-0.815229,-0.61642,0.68091,-0.33629,2.05,2.75,2.88,3.1,2.99,3.03,2.99,3.87,3.13,3.92,4.04,3.93,3.89,3.83,3.72,2460,10.25,60030.151,179.721207,1087.375488,-187.453018,1.06479328920415,2.01324898530229,2.43832514029466,-10.825452,785.805176,168.218109,54.43309,1198.051514,9.70883,"CRUZINT"
99,16,40,30.152,3493.16,0.660456,-0.137465,0.695316,-0.247865,-0.96748,0.16663,0.00262,3490.1,0.055335,-0.344272,0.463817,-0.814425,-0.61496,0.69141,-0.33534,2.05,2.75,2.87,3.08,3.01,3.03,2.99,3.86,3.13,3.92,4.04,3.93,3.89,3.83,3.72,2461,10.254167,60030.155167,179.803452,1087.866333,-187.013336,1.06316028820308,2.01182519351398,2.4380357535404,-10.832546,785.803467,168.243729,54.284653,1198.088135,9.883063,"CRUZINT"
100,16,40,30.198,3493.18,0.660143,-0.137691,0.695686,-0.247534,-0.97299,0.16846,-0.00192,3490.12,0.055992,-0.335874,0.471069,-0.813725,-0.61286,0.71157,-0.33191,2.05,2.75,2.87,3.07,3.01,3.03,2.99,3.86,3.13,3.92,4.04,3.93,3.89,3.83,3.72,2472,10.3,60030.201,182.018509,1096.020874,-182.837021,1.0402704762822,1.9841723783181,2.43918668733678,-10.765452,785.771179,168.552841,53.120853,1198.352783,11.607297,"CRUZINT"
101,16,40,30.203,3493.2,0.659784,-0.137975,0.696052,-0.247306,-0.97018,0.16701,-0.00567,3490.14,0.055626,-0.326567,0.479459,-0.812637,-0.5637,0.73399,-0.31857,2.06,2.75,2.87,3.05,3.02,3.03,2.99,3.87,3.13,3.92,4.04,3.93,3.89,3.83,3.72,2473,10.304167,60030.205167,181.970978,1096.554565,-182.411591,1.03919744894328,1.9826566428196,2.43936560081738,-10.748242,785.770569,168.589417,53.042484,1198.370972,11.753649,"CRUZINT"
102,16,40,30.223,3493.22,0.659481,-0.138278,0.696395,-0.246977,-0.96823,0.16788,0.00771,3490.16,0.055394,-0.318626,0.486254,-0.811767,-0.54958,0.7312,-0.31036,2.08,2.73,2.88,3.03,3.03,3.04,3,3.87,3.13,3.92,4.04,3.93,3.89,3.83,3.72,2478,10.325,60030.226,182.89772,1100.303955,-180.665024,1.02975591470989,1.96964451681958,2.44051840743947,-10.651843,785.793457,168.741653,52.723797,1198.46167,12.474665,"CRUZINT"
103,16,40,30.228,3493.24,0.659115,-0.138526,0.696833,-0.246578,-0.97248,0.16516,0.00485,3490.18,0.054895,-0.310783,0.492783,-0.810904,-0.52445,0.75077,-0.29459,2.1,2.72,2.88,3.01,3.03,3.04,3,3.87,3.14,3.92,4.04,3.93,3.89,3.83,3.72,2479,10.329167,60030.230167,183.038895,1100.98645,-180.349716,1.028166558521,1.96725821627577,2.44082225896532,-10.634511,785.805481,168.771667,52.665039,1198.480225,12.626004,"CRUZINT"
104,16,40,30.282,3493.26,0.658664,-0.138887,0.697295,-0.246276,-0.97391,0.16075,0.01057,3490.2,0.054079,-0.303202,0.499285,-0.809851,-0.51404,0.76477,-0.29337,2.14,2.7,2.88,2.99,3.05,3.03,3,3.87,3.14,3.92,4.04,3.93,3.89,3.83,3.72,2492,10.383333,60030.284333,184.665527,1109.896362,-176.316513,1.00867894633457,1.9366367155369,2.44461428350755,-10.288351,785.98291,169.06192,52.305149,1198.736328,14.107492,"CRUZINT"
105,16,40,30.287,3493.28,0.658271,-0.139358,0.697634,-0.2461,-0.97168,0.16293,0.0165,3490.22,0.053089,-0.295945,0.50563,-0.808664,-0.49219,0.78498,-0.29738,2.19,2.68,2.87,2.97,3.07,3.04,3,3.87,3.14,3.92,4.04,3.94,3.89,3.83,3.72,2493,10.3875,60030.2885,184.726685,1110.535156,-176.079468,1.00753539612736,1.93439271012773,2.44508520808328,-10.263351,786.007507,169.082932,52.277863,1198.753418,14.20156,"CRUZINT"
106,16,40,30.293,3493.3,0.657855,-0.139785,0.697994,-0.24595,-0.97226,0.16614,0.02196,3490.24,0.051855,-0.288765,0.512033,-0.807309,-0.49245,0.80047,-0.30622,2.22,2.66,2.87,2.95,3.08,3.04,3,3.87,3.14,3.92,4.04,3.93,3.89,3.83,3.72,2495,10.395833,60030.296833,184.793182,1111.86499,-175.593475,1.00538474448848,1.92985031593472,2.44616275911958,-10.221144,786.057373,169.100418,52.230015,1198.808594,14.376817,"CRUZINT"
107,16,40,30.317,3493.32,0.657567,-0.140248,0.69821,-0.245843,-0.97428,0.16621,0.02323,3490.26,0.050588,-0.281532,0.518599,-0.805752,-0.48281,0.80111,-0.31093,2.27,2.63,2.86,2.93,3.09,3.04,3,3.87,3.14,3.92,4.04,3.94,3.89,3.83,3.72,2500,10.416667,60030.317667,185.854111,1115.759521,-174.149017,0.996050156611293,1.91585353187227,2.44675071820571,-10.121894,786.20575,169.115097,52.131447,1198.963989,14.805379,"CRUZINT"
108,16,40,30.343,3493.34,0.657378,-0.14074,0.698314,-0.245771,-0.97443,0.16024,0.02176,3490.28,0.049453,-0.274193,0.524896,-0.804274,-0.45231,0.80673,-0.31257,2.31,2.61,2.85,2.92,3.1,3.04,3,3.87,3.14,3.92,4.04,3.93,3.89,3.83,3.73,2507,10.445833,60030.346833,186.915695,1120.585938,-172.189224,0.985089068401292,1.89874317002546,2.4473750736337,-10.015996,786.447327,169.020828,51.993073,1199.202881,15.396655,"CRUZINT"
109,16,40,30.348,3493.36,0.657157,-0.141281,0.698412,-0.245775,-0.97634,0.15498,0.02164,3490.3,0.04847,-0.266811,0.530877,-0.80289,-0.45871,0.82314,-0.31635,2.34,2.58,2.83,2.92,3.1,3.04,3,3.87,3.14,3.92,4.04,3.93,3.9,3.83,3.72,2508,10.45,60030.351,187.110962,1121.27417,-171.901062,0.983370050248067,1.89628239570122,2.44728463737917,-10.002199,786.484314,168.997589,51.982986,1199.239136,15.470903,"CRUZINT"
110,16,40,30.378,3493.38,0.65703,-0.141782,0.698415,-0.245817,-0.98127,0.15036,0.01685,3490.32,0.047835,-0.259213,0.536519,-0.801666,-0.45267,0.81505,-0.29855,2.37,2.56,2.81,2.92,3.11,3.04,3,3.87,3.14,3.92,4.04,3.94,3.89,3.83,3.73,2515,10.479167,60030.380167,188.400787,1125.942993,-170.17482,0.971882178542516,1.87905440856377,2.44682941176442,-9.918265,786.703186,168.769943,51.908527,1199.401001,15.820445,"CRUZINT"
111,16,40,30.383,3493.4,0.656921,-0.142292,0.698413,-0.245818,-0.98113,0.15009,0.01292,3490.34,0.047396,-0.251171,0.541914,-0.800622,-0.42561,0.82321,-0.2861,2.39,2.56,2.8,2.92,3.12,3.04,3,3.87,3.14,3.92,4.04,3.94,3.9,3.83,3.72,2516,10.483333,60030.384333,188.540878,1126.567505,-169.947983,0.970422522427096,1.87677724201514,2.44678095282642,-9.908552,786.731262,168.729935,51.895782,1199.425903,15.850886,"CRUZINT"
112,16,40,30.423,3493.42,0.656862,-0.142715,0.69836,-0.245882,-0.97937,0.14493,0.01676,3490.36,0.046159,-0.241763,0.547351,-0.799892,-0.4274,0.84443,-0.28875,2.4,2.55,2.78,2.92,3.13,3.04,3,3.87,3.14,3.92,4.04,3.94,3.89,3.83,3.72,2526,10.525,60030.426,189.561478,1132.612915,-167.718918,0.957177184505276,1.85447386576647,2.44677140828285,-9.804097,786.932678,168.393372,51.896523,1199.526367,15.928708,"CRUZINT"
113,16,40,30.428,3493.44,0.656841,-0.143064,0.698291,-0.245933,-0.97686,0.14101,0.01824,3490.38,0.045922,-0.232923,0.552192,-0.799201,-0.40299,0.84042,-0.27525,2.41,2.54,2.77,2.93,3.13,3.04,3,3.87,3.14,3.92,4.04,3.93,3.89,3.83,3.73,2527,10.529167,60030.430167,189.644135,1133.177856,-167.524063,0.955981150827218,1.85234969905463,2.44678269807777,-9.794158,786.948669,168.357849,51.901329,1199.528564,15.917768,"CRUZINT"
114,16,40,30.482,3493.46,0.656926,-0.143378,0.698244,-0.245656,-0.97585,0.1396,0.01868,3490.4,0.045684,-0.223938,0.557039,-0.798418,-0.37015,0.85374,-0.28052,2.41,2.54,2.76,2.94,3.13,3.04,3,3.87,3.14,3.92,4.04,3.94,3.9,3.83,3.72,2540,10.583333,60030.484333,191.217743,1141.487549,-164.754623,0.938020150309684,1.81995828139064,2.44613411342838,-9.82097,787.1698,167.856308,51.930893,1199.566406,16.072994,"CRUZINT"
115,16,40,30.487,3493.48,0.656962,-0.143572,0.698197,-0.24558,-0.97112,0.1396,0.02053,3490.42,0.045204,-0.215921,0.561826,-0.7973,-0.35352,0.86482,-0.28577,2.41,2.53,2.75,2.95,3.13,3.04,3,3.87,3.14,3.92,4.04,3.94,3.9,3.83,3.73,2541,10.5875,60030.4885,191.500351,1142.171875,-164.577698,0.936128812745304,1.81720624208156,2.44562973093767,-9.835249,787.202881,167.800003,51.935928,1199.588867,16.06843,"CRUZINT"
116,16,40,30.492,3493.5,0.656951,-0.143801,0.698211,-0.245433,-0.96917,0.14397,0.01426,3490.44,0.044267,-0.207908,0.566409,-0.796239,-0.36246,0.86372,-0.27693,2.42,2.54,2.74,2.96,3.13,3.04,3,3.87,3.14,3.92,4.04,3.94,3.9,3.83,3.73,2542,10.591667,60030.492667,191.346008,1142.729004,-164.360001,0.935720065546384,1.8152530727256,2.44616872313917,-9.836482,787.221069,167.749466,51.931084,1199.607422,16.073698,"CRUZINT"
117,16,40,30.537,3493.52,0.656993,-0.143925,0.69818,-0.245335,-0.96544,0.15062,0.01395,3490.46,0.043208,-0.199849,0.570852,-0.795187,-0.36806,0.89322,-0.27297,2.42,2.54,2.74,2.96,3.13,3.04,3,3.87,3.14,3.92,4.04,3.94,3.89,3.83,3.72,2553,10.6375,60030.5385,190.265793,1145.94165,-166.228043,0.941639839550855,1.80204879814318,2.45807823154807,-9.869212,787.532654,167.091995,51.843922,1199.854736,16.156443,"CRUZINT"
118,16,40,30.545,3493.54,0.656961,-0.144013,0.698217,-0.245266,-0.9672,0.15009,0.00881,3490.48,0.041983,-0.192103,0.575079,-0.794115,-0.34199,0.88888,-0.26922,2.41,2.54,2.73,2.97,3.13,3.04,3,3.87,3.14,3.92,4.04,3.94,3.89,3.83,3.72,2555,10.645833,60030.546833,190.291153,1147.125488,-165.884323,0.939856617687539,1.79760777108027,2.45834989807176,-9.870564,787.591431,166.963058,51.754433,1199.935791,16.245928,"CRUZINT"
119,16,40,30.559,3493.56,0.656938,-0.144088,0.698221,-0.245272,-0.97231,0.15131,0.01064,3490.5,0.040663,-0.184673,0.579438,-0.792776,-0.30849,0.86822,-0.26121,2.41,2.54,2.73,2.98,3.12,3.04,3,3.87,3.14,3.92,4.04,3.94,3.89,3.83,3.72,2558,10.658333,60030.559333,190.504593,1149.156738,-165.256439,0.936246795325425,1.7898158935989,2.45826514362241,-9.802769,787.525574,166.782028,51.663082,1200.043579,16.365671,"CRUZINT"
120,16,40,30.566,3493.58,0.656959,-0.144151,0.698192,-0.24526,-0.97105,0.14542,0.00984,3490.52,0.039405,-0.177904,0.583692,-0.791266,-0.29503,0.87582,-0.24979,2.41,2.54,2.72,2.98,3.12,3.04,3,3.87,3.14,3.92,4.04,3.94,3.89,3.83,3.73,2560,10.666667,60030.567667,190.335739,1149.964478,-165.046844,0.935832060990612,1.78684996511913,2.45913742573171,-9.805014,787.593872,166.649368,51.588474,1200.110718,16.478552,"CRUZINT"
121,16,40,30.598,3493.6,0.65715,-0.144189,0.698077,-0.245053,-0.97599,0.14287,0.01988,3490.54,0.038075,-0.171845,0.587656,-0.789734,-0.28592,0.86377,-0.25412,2.41,2.54,2.72,2.98,3.12,3.04,3,3.87,3.14,3.92,4.04,3.94,3.89,3.84,3.72,2568,10.7,60030.601,192.553543,1155.574829,-161.34552,0.915175711033852,1.76517585329619,2.44772012933024,-9.775575,787.81488,166.201202,51.241917,1200.347046,16.849585,"CRUZINT"
122,16,40,30.603,3493.62,0.657262,-0.144161,0.698007,-0.244969,-0.98007,0.1423,0.01435,3490.56,0.036824,-0.166271,0.591339,-0.788236,-0.27328,0.8649,-0.23685,2.41,2.54,2.72,2.98,3.12,3.04,3,3.87,3.14,3.92,4.04,3.94,3.9,3.83,3.73,2569,10.704167,60030.605167,192.134583,1155.72937,-161.236618,0.916161663009671,1.76489214905117,2.44879849581439,-9.772358,787.84082,166.152496,51.186996,1200.37915,16.887197,"CRUZINT"
123,16,40,30.64,3493.64,0.65739,-0.144066,0.697958,-0.244822,-0.98017,0.14645,0.02026,3490.58,0.035698,-0.161466,0.594484,-0.78692,-0.25991,0.87205,-0.22222,2.41,2.54,2.72,2.98,3.12,3.04,3,3.87,3.14,3.92,4.04,3.94,3.89,3.83,3.73,2578,10.741667,60030.642667,192.733826,1159.673828,-159.624878,0.906913989197396,1.74911848398304,2.44552901166757,-9.744889,788.051453,165.830887,50.760986,1200.543335,17.184065,"CRUZINT"
124,16,40,30.645,3493.66,0.657379,-0.143839,0.698021,-0.244807,-0.97515,0.15386,0.01667,3490.6,0.034723,-0.157222,0.597,-0.785918,-0.2565,0.87355,-0.20954,2.41,2.54,2.72,2.98,3.12,3.04,3,3.87,3.14,3.92,4.04,3.94,3.89,3.83,3.72,2579,10.745833,60030.646833,193.302292,1160.701294,-159.246292,0.903309841758483,1.74472213965467,2.44351308137436,-9.740344,788.063782,165.797424,50.727528,1200.559204,17.201097,"CRUZINT"
125,16,40,30.697,3493.68,0.657362,-0.14364,0.698081,-0.244799,-0.97309,0.15923,0.01679,3490.62,0.034003,-0.153162,0.599085,-0.785164,-0.24817,0.89734,-0.21463,2.41,2.54,2.72,2.98,3.12,3.04,3,3.87,3.15,3.92,4.04,3.94,3.89,3.83,3.72,2592,10.8,60030.701,191.152893,1162.879028,-159.740906,0.909984814369094,1.73624466763413,2.45297482171959,-9.839561,788.265869,165.661697,50.486702,1200.625122,17.221252,"CRUZINT"
126,16,40,30.702,3493.7,0.657004,-0.1432,0.698274,-0.245465,-0.96845,0.15398,0.01458,3490.64,0.033328,-0.149135,0.600864,-0.784608,-0.2417,0.90097,-0.22525,2.4,2.54,2.72,2.98,3.12,3.04,3,3.87,3.14,3.92,4.04,3.94,3.89,3.83,3.73,2593,10.804167,60030.705167,191.141174,1163.157104,-159.620193,0.909525334282663,1.73511995543007,2.45289214982532,-9.85102,788.283813,165.6698,50.471127,1200.627808,17.230267,"CRUZINT"
127,16,40,30.723,3493.72,0.656994,-0.143166,0.698259,-0.245556,-0.96697,0.15951,0.012,3490.66,0.032682,-0.145235,0.60278,-0.783898,-0.23326,0.88281,-0.24301,2.4,2.55,2.72,2.98,3.12,3.04,3,3.87,3.14,3.92,4.04,3.94,3.9,3.83,3.73,2598,10.825,60030.726,192.470596,1165.692017,-157.223038,0.897106105012869,1.72495080478531,2.44384775167777,-9.898643,788.331604,165.67955,50.402374,1200.657104,17.276695,"CRUZINT"
128,16,40,30.728,3493.74,0.656995,-0.143142,0.698212,-0.245702,-0.96695,0.15733,0.00954,3490.68,0.032247,-0.141661,0.604836,-0.782985,-0.23394,0.89362,-0.24224,2.4,2.55,2.71,2.98,3.12,3.04,3,3.87,3.15,3.92,4.04,3.94,3.89,3.83,3.73,2599,10.829167,60030.730167,192.448822,1165.899658,-157.090332,0.896689212491891,1.72417096855651,2.44367459325641,-9.906199,788.344055,165.680771,50.374943,1200.672485,17.299953,"CRUZINT"
129,16,40,30.758,3493.76,0.656927,-0.142937,0.698082,-0.246367,-0.96804,0.16532,0.00837,3490.7,0.031912,-0.138488,0.60696,-0.781922,-0.22396,0.88419,-0.23713,2.4,2.55,2.71,2.98,3.12,3.04,3,3.87,3.15,3.92,4.04,3.94,3.89,3.83,3.73,2606,10.858333,60030.759333,192.263214,1167.213501,-156.135818,0.894399378980139,1.71956728123869,2.44279674174966,-9.9674,788.39801,165.597183,50.196934,1200.852295,17.61915,"CRUZINT"
130,16,40,30.763,3493.78,0.656993,-0.142875,0.69804,-0.246346,-0.9661,0.15512,0.00256,3490.72,0.031675,-0.136474,0.608758,-0.780888,-0.21176,0.88637,-0.21641,2.4,2.55,2.71,2.98,3.12,3.04,3,3.87,3.15,3.92,4.04,3.94,3.89,3.83,3.73,2607,10.8625,60030.7635,192.233063,1167.356201,-156.025375,0.894162942746664,1.71911343003035,2.44269726185451,-9.976547,788.399414,165.585403,50.174862,1200.881348,17.654037,"CRUZINT"
131,16,40,30.799,3493.8,0.657003,-0.142906,0.697948,-0.246563,-0.96875,0.16961,0.00455,3490.74,0.031733,-0.135221,0.609959,-0.780165,-0.20422,0.94331,-0.18419,2.39,2.55,2.71,2.98,3.12,3.04,3,3.87,3.15,3.92,4.03,3.93,3.89,3.83,3.73,2616,10.9,60030.801,192.417267,1168.517212,-155.33197,0.891481614631565,1.71535005863043,2.44114126028262,-10.05798,788.458008,165.482834,50.03257,1201.16394,17.940886,"CRUZINT"
132,16,40,30.804,3493.82,0.657031,-0.143003,0.69781,-0.246821,-0.96547,0.15576,0.00483,3490.76,0.03124,-0.134147,0.610144,-0.780226,-0.19181,0.92372,-0.21729,2.39,2.55,2.71,2.98,3.12,3.04,3,3.87,3.15,3.92,4.03,3.94,3.89,3.83,3.73,2617,10.904167,60030.805167,191.977753,1168.420654,-155.334457,0.893111555271023,1.71601557425482,2.44256476854783,-10.063087,788.468689,165.485519,50.010551,1201.186646,17.987564,"CRUZINT"
133,16,40,30.839,3493.84,0.657108,-0.143068,0.697672,-0.246971,-0.96797,0.15411,0.01114,3490.78,0.030704,-0.133847,0.610849,-0.779747,-0.19536,0.90222,-0.23486,2.38,2.56,2.71,2.98,3.12,3.04,3,3.87,3.15,3.92,4.03,3.94,3.89,3.83,3.73,2626,10.941667,60030.842667,191.807098,1168.961182,-154.577927,0.892055075769898,1.71432943650171,2.44200432285453,-10.120198,788.518921,165.526428,49.880234,1201.297729,18.38624,"CRUZINT"
134,16,40,30.847,3493.86,0.657182,-0.143121,0.697668,-0.246756,-0.97065,0.14551,0.02107,3490.8,0.030428,-0.133932,0.611606,-0.77915,-0.22044,0.90187,-0.2248,2.38,2.56,2.72,2.98,3.12,3.04,3,3.87,3.15,3.92,4.03,3.93,3.89,3.83,3.73,2628,10.95,60030.851,191.753525,1168.969116,-154.438385,0.891987556409489,1.71441561583495,2.44191257862161,-10.126708,788.513672,165.536392,49.8592,1201.314819,18.458302,"CRUZINT"
135,16,40,30.877,3493.88,0.657461,-0.142949,0.697507,-0.246565,-0.97166,0.14523,0.01461,3490.82,0.030474,-0.134198,0.611611,-0.779098,-0.21997,0.91138,-0.21892,2.38,2.56,2.72,2.98,3.12,3.04,3,3.87,3.15,3.92,4.04,3.93,3.89,3.83,3.74,2635,10.979167,60030.880167,191.688354,1168.732422,-154.111664,0.891824832045409,1.71562742345672,2.44140136351287,-10.171014,788.508423,165.637589,49.769222,1201.348267,18.705957,"CRUZINT"
136,16,40,30.899,3493.9,0.657455,-0.142857,0.697555,-0.246501,-0.97018,0.15295,0.01233,3490.84,0.030638,-0.134259,0.611076,-0.779501,-0.20077,0.93455,-0.21812,2.38,2.56,2.72,2.98,3.12,3.04,3,3.87,3.15,3.92,4.04,3.93,3.89,3.83,3.73,2640,11,60030.901,191.676132,1168.47583,-153.865356,0.891592168137319,1.71660343576929,2.44088684101447,-10.194922,788.485779,165.76474,49.712837,1201.310669,18.881271,"CRUZINT"
137,16,40,30.904,3493.92,0.657449,-0.143017,0.697457,-0.246698,-0.9732,0.15792,0.01048,3490.86,0.030688,-0.134215,0.610523,-0.77994,-0.20862,0.9164,-0.23244,2.38,2.56,2.72,2.98,3.12,3.04,3,3.87,3.15,3.92,4.04,3.93,3.88,3.82,3.73,2641,11.004167,60030.905167,191.683655,1168.425415,-153.806168,0.89149481003325,1.71679461605703,2.44073449304441,-10.193891,788.476318,165.792297,49.699646,1201.303833,18.922632,"CRUZINT"
138,16,40,30.962,3493.94,0.657462,-0.14312,0.697394,-0.246782,-0.96978,0.16225,0.00943,3490.88,0.031026,-0.134474,0.610442,-0.779945,-0.22184,0.91354,-0.23033,2.38,2.56,2.72,2.98,3.12,3.04,3,3.87,3.15,3.93,4.04,3.92,3.87,3.82,3.73,2655,11.0625,60030.9635,190.413376,1166.537231,-154.793655,0.90023426307318,1.72425854228137,2.44715825930795,-10.179839,788.305603,166.15155,49.44836,1201.21228,19.514574,"CRUZINT"
139,16,40,30.968,3493.96,0.657434,-0.143156,0.697363,-0.246924,-0.96772,0.15595,0.01256,3490.9,0.031707,-0.135077,0.610656,-0.779646,-0.22459,0.92719,-0.20776,2.38,2.56,2.72,2.98,3.12,3.04,3,3.87,3.15,3.92,4.04,3.92,3.86,3.82,3.73,2657,11.070833,60030.971833,190.033295,1166.056152,-155.012329,0.90242801066302,1.72636691408433,2.44867755798143,-10.158203,788.283569,166.183029,49.425919,1201.211914,19.5567,"CRUZINT"
140,16,40,30.972,3493.98,0.657507,-0.143199,0.697278,-0.246948,-0.9677,0.15522,0.01027,3490.92,0.032333,-0.136171,0.61034,-0.779678,-0.21453,0.92843,-0.20421,2.38,2.56,2.72,2.98,3.12,3.04,3,3.87,3.15,3.92,4.03,3.92,3.85,3.82,3.73,2658,11.075,60030.976,190.05162,1165.98291,-154.977295,0.902359132886721,1.72670308319108,2.44850458812786,-10.151969,788.270752,166.200714,49.420422,1201.216919,19.581007,"CRUZINT"
141,16,40,30.998,3494,0.657423,-0.143297,0.697265,-0.247149,-0.96678,0.16016,0.00689,3490.94,0.032927,-0.137419,0.61003,-0.779676,-0.207,0.9195,-0.22252,2.38,2.56,2.72,2.98,3.12,3.04,3,3.87,3.15,3.92,4.03,3.92,3.84,3.82,3.72,2664,11.1,60031.001,190.205032,1165.470215,-154.737564,0.901663548696136,1.72880022272474,2.44715772383519,-10.090058,788.218567,166.289337,49.337093,1201.202881,19.765179,"CRUZINT"
142,16,40,31.003,3494.02,0.657315,-0.143517,0.697218,-0.24744,-0.96709,0.15951,0.00912,3490.96,0.033512,-0.138844,0.610004,-0.779419,-0.20426,0.90355,-0.23396,2.38,2.56,2.72,2.98,3.12,3.04,3,3.87,3.15,3.92,4.02,3.92,3.83,3.81,3.72,2665,11.104167,60031.005167,190.230896,1165.36499,-154.7202,0.901651918074484,1.729244310584,2.44700570295824,-10.086762,788.215088,166.304764,49.336334,1201.203491,19.790857,"CRUZINT"
143,16,40,31.062,3494.04,0.657248,-0.143759,0.697116,-0.247763,-0.96765,0.15489,0.0121,3490.98,0.034374,-0.140819,0.609795,-0.779191,-0.21697,0.92646,-0.22203,2.38,2.56,2.72,2.98,3.12,3.04,3,3.87,3.15,3.92,4.01,3.93,3.81,3.81,3.71,2679,11.1625,60031.0635,189.448425,1162.173096,-156.133499,0.910422416303844,1.74247129166194,2.4513086884198,-10.084823,788.069946,166.35379,49.549091,1201.134521,19.721355,"CRUZINT"
144,16,40,31.067,3494.06,0.657138,-0.143896,0.697193,-0.24776,-0.96558,0.15111,0.01906,3491,0.035368,-0.142827,0.608794,-0.779564,-0.23047,0.94795,-0.21908,2.38,2.56,2.72,2.98,3.12,3.04,3,3.87,3.15,3.92,4,3.93,3.8,3.81,3.71,2680,11.166667,60031.067667,189.512604,1162.02832,-156.123398,0.910302501752082,1.74303652937309,2.45099629852047,-10.085862,788.064697,166.358276,49.580078,1201.119995,19.700649,"CRUZINT"
145,16,40,31.072,3494.08,0.65716,-0.143954,0.697171,-0.247733,-0.97505,0.15118,0.01768,3491.02,0.036273,-0.144479,0.607333,-0.780357,-0.22342,0.9436,-0.25298,2.38,2.56,2.72,2.98,3.12,3.04,3,3.87,3.15,3.92,3.99,3.94,3.8,3.81,3.7,2682,11.175,60031.076,192.553436,1163.577881,-153.151428,0.891023219465712,1.7365597541542,2.43412404848265,-10.107689,788.064453,166.367386,49.619038,1201.09668,19.658998,"CRUZINT"
146,16,40,31.098,3494.1,0.657042,-0.144012,0.697331,-0.247559,-0.97759,0.15234,0.01957,3491.04,0.037175,-0.145527,0.606543,-0.780734,-0.23945,0.93502,-0.2556,2.38,2.56,2.72,2.98,3.13,3.04,3,3.87,3.15,3.92,3.99,3.94,3.8,3.8,3.7,2688,11.2,60031.101,190.227737,1161.173096,-155.907562,0.907994681241598,1.74626291445436,2.44760073481206,-10.146391,788.064941,166.390717,49.779037,1201.018188,19.54814,"CRUZINT"
147,16,40,31.103,3494.12,0.656999,-0.14401,0.697346,-0.247633,-0.97173,0.149,0.01508,3491.06,0.038087,-0.146212,0.606016,-0.780971,-0.2484,0.93426,-0.23448,2.38,2.56,2.72,2.98,3.12,3.04,3,3.88,3.15,3.93,3.98,3.95,3.79,3.8,3.7,2689,11.204167,60031.105167,191.451492,1161.775146,-154.863007,0.900664571265507,1.74368527235746,2.44125841972817,-10.156651,788.074829,166.387772,49.801945,1201.009155,19.522627,"CRUZINT"
148,16,40,31.138,3494.14,0.657055,-0.143929,0.69733,-0.247577,-0.96849,0.14547,0.0112,3491.08,0.038847,-0.147073,0.605302,-0.781326,-0.25099,0.951,-0.21983,2.38,2.56,2.72,2.98,3.12,3.04,3,3.88,3.16,3.93,3.97,3.95,3.79,3.8,3.69,2697,11.2375,60031.1385,191.777222,1160.832642,-155.081238,0.900916693177343,1.74737828017483,2.44022462692783,-10.190225,788.064941,166.391876,50.030647,1200.936279,19.327194,"CRUZINT"
149,16,40,31.143,3494.16,0.657172,-0.143828,0.697361,-0.247238,-0.97248,0.1446,0.00795,3491.1,0.039331,-0.148026,0.60472,-0.781572,-0.25065,0.94472,-0.22517,2.38,2.56,2.72,2.98,3.13,3.04,2.99,3.88,3.16,3.93,3.97,3.96,3.79,3.79,3.69,2699,11.245833,60031.146833,191.856644,1160.656372,-155.143616,0.900975132386685,1.7480551702316,2.44004443474789,-10.191805,788.058594,166.3936,50.095665,1200.919189,19.268858,"CRUZINT"
150,16,40,31.178,3494.18,0.657181,-0.143662,0.697412,-0.247165,-0.97967,0.14943,0.00706,3491.12,0.039506,-0.149147,0.604506,-0.781516,-0.25478,0.92264,-0.23938,2.38,2.56,2.72,2.98,3.12,3.04,2.99,3.88,3.16,3.93,3.97,3.96,3.78,3.79,3.69,2707,11.279167,60031.180167,192.120544,1160.220947,-155.270035,0.900971796113629,1.74969109560142,2.43946268151385,-10.164668,788.09082,166.385437,50.313667,1200.86438,19.112385,"CRUZINT"
151,16,40,31.183,3494.2,0.657164,-0.143478,0.697454,-0.247198,-0.979,0.15417,0.0097,3491.14,0.039485,-0.150458,0.604383,-0.78136,-0.25971,0.92174,-0.23087,2.38,2.56,2.72,2.98,3.13,3.04,2.99,3.87,3.16,3.93,3.96,3.96,3.79,3.78,3.69,2708,11.283333,60031.184333,192.139435,1160.158325,-155.300934,0.901061985254817,1.74992806503912,2.43946749637251,-10.158358,788.098572,166.386398,50.346714,1200.855591,19.084648,"CRUZINT"
152,16,40,31.218,3494.22,0.657247,-0.143307,0.697407,-0.247212,-0.97402,0.15288,0.01383,3491.16,0.039378,-0.151887,0.604122,-0.781292,-0.25827,0.92536,-0.21678,2.38,2.56,2.72,2.98,3.12,3.04,2.99,3.88,3.17,3.93,3.96,3.97,3.79,3.78,3.69,2717,11.320833,60031.221833,194.343262,1161.117188,-153.851059,0.889333613394245,1.74570274153557,2.42936233847522,-10.059144,788.120544,166.347183,50.652508,1200.811279,18.803793,"CRUZINT"
153,16,40,31.223,3494.24,0.657357,-0.143156,0.697346,-0.247177,-0.96962,0.15222,0.01367,3491.18,0.039168,-0.153597,0.603724,-0.781275,-0.25281,0.92346,-0.2157,2.38,2.56,2.72,2.98,3.13,3.04,2.98,3.87,3.17,3.93,3.96,3.98,3.79,3.77,3.69,2718,11.325,60031.226,194.347397,1161.026855,-153.925339,0.889581186937986,1.74606301473347,2.42948225805462,-10.053516,788.126892,166.339981,50.700912,1200.801758,18.746902,"CRUZINT"
154,16,40,31.282,3494.26,0.65737,-0.143021,0.697385,-0.247113,-0.96973,0.15187,0.0154,3491.2,0.038925,-0.155277,0.603284,-0.781295,-0.26118,0.93424,-0.22452,2.38,2.56,2.72,2.98,3.13,3.04,2.98,3.87,3.17,3.93,3.96,3.98,3.79,3.77,3.7,2732,11.383333,60031.284333,192.143356,1157.969604,-157.040436,0.9066707240397,1.75809237285771,2.44203098102368,-9.971393,788.129883,166.329224,51.152313,1200.562378,17.977097,"CRUZINT"
155,16,40,31.287,3494.28,0.657485,-0.142936,0.69728,-0.247151,-0.97527,0.15499,0.01627,3491.22,0.038578,-0.156655,0.602841,-0.78138,-0.27046,0.92444,-0.23851,2.38,2.56,2.72,2.98,3.12,3.04,2.98,3.87,3.17,3.93,3.95,3.98,3.8,3.77,3.7,2733,11.3875,60031.2885,192.147018,1157.880127,-157.124847,0.906928709942533,1.75837208745472,2.44218119316133,-9.968329,788.13208,166.327484,51.194775,1200.538086,17.924339,"CRUZINT"
156,16,40,31.292,3494.3,0.657538,-0.142828,0.697249,-0.247158,-0.97546,0.15606,0.01925,3491.24,0.038248,-0.157801,0.602519,-0.781413,-0.26906,0.92407,-0.23417,2.38,2.56,2.72,2.98,3.12,3.04,2.97,3.86,3.18,3.93,3.95,3.99,3.8,3.76,3.7,2734,11.391667,60031.292667,192.139252,1157.786987,-157.216263,0.907210873322894,1.75865116025001,2.44235528816179,-9.965831,788.134888,166.334686,51.230518,1200.509888,17.867672,"CRUZINT"
157,16,40,31.318,3494.32,0.657694,-0.142715,0.697129,-0.247148,-0.97131,0.15355,0.0146,3491.26,0.037892,-0.158873,0.602251,-0.78142,-0.265,0.92965,-0.22963,2.38,2.56,2.72,2.98,3.12,3.03,2.97,3.86,3.18,3.93,3.95,3.99,3.81,3.76,3.71,2741,11.420833,60031.321833,191.438766,1156.730591,-158.430832,0.912945932329056,1.76229858628627,2.4466286842783,-9.930893,788.111023,166.352722,51.396103,1200.325806,17.494061,"CRUZINT"
158,16,40,31.323,3494.34,0.657827,-0.142574,0.69703,-0.247156,-0.96866,0.15119,0.0116,3491.28,0.03747,-0.159895,0.602091,-0.781355,-0.27073,0.92908,-0.23369,2.38,2.56,2.72,2.98,3.13,3.03,2.96,3.86,3.18,3.93,3.95,3.99,3.81,3.75,3.71,2742,11.425,60031.326,191.415771,1156.653198,-158.533356,0.91326476343729,1.76248664816199,2.4468708191625,-9.927909,788.104675,166.355225,51.423622,1200.292969,17.436197,"CRUZINT"
159,16,40,31.379,3494.36,0.657968,-0.142432,0.696911,-0.247198,-0.97079,0.1528,0.00635,3491.3,0.037058,-0.160746,0.602187,-0.781126,-0.27223,0.92685,-0.23019,2.38,2.56,2.72,2.98,3.12,3.03,2.96,3.86,3.18,3.93,3.95,4,3.82,3.75,3.71,2755,11.479167,60031.380167,192.5354,1156.90918,-157.898209,0.906575282221078,1.76050892234896,2.44103421791419,-9.841183,788.104065,166.404129,51.633347,1200.012451,16.84075,"CRUZINT"
160,16,40,31.384,3494.38,0.658098,-0.142231,0.696798,-0.247285,-0.9721,0.15658,0.00621,3491.32,0.036418,-0.161929,0.602014,-0.781045,-0.27291,0.93996,-0.23073,2.38,2.56,2.72,2.98,3.13,3.03,2.95,3.86,3.18,3.93,3.95,4,3.83,3.75,3.72,2756,11.483333,60031.384333,192.482864,1156.860229,-158.009567,0.907011977006702,1.76065492059908,2.4414094212976,-9.832371,788.097412,166.402985,51.654819,1199.997681,16.790375,"CRUZINT"
161,16,40,31.398,3494.4,0.658262,-0.142012,0.696641,-0.247415,-0.97151,0.15653,0.00684,3491.34,0.035564,-0.163218,0.601761,-0.781012,-0.28439,0.9292,-0.24644,2.38,2.56,2.72,2.98,3.13,3.03,2.95,3.85,3.18,3.93,3.95,4,3.83,3.75,3.72,2760,11.5,60031.401,191.403275,1156.205322,-159.866333,0.915556592989873,1.76265647372349,2.44905999873816,-9.812564,788.108337,166.418182,51.694305,1199.924805,16.591413,"CRUZINT"
162,16,40,31.407,3494.42,0.658405,-0.141841,0.696484,-0.247575,-0.97037,0.15405,0.00699,3491.36,0.034832,-0.164372,0.601436,-0.781053,-0.29365,0.9261,-0.25087,2.38,2.56,2.72,2.98,3.13,3.03,2.94,3.85,3.18,3.93,3.95,4,3.84,3.75,3.73,2762,11.508333,60031.409333,191.298874,1156.112671,-160.045685,0.916185744022688,1.76290412932688,2.44958414359983,-9.798769,788.099304,166.421341,51.699875,1199.889282,16.494371,"CRUZINT"
163,16,40,31.44,3494.44,0.658521,-0.141695,0.696334,-0.247775,-0.96983,0.15552,0.009,3491.38,0.034152,-0.165145,0.601206,-0.781097,-0.2714,0.91806,-0.25401,2.38,2.56,2.72,2.98,3.13,3.03,2.94,3.85,3.18,3.93,3.94,4,3.85,3.75,3.73,2770,11.541667,60031.442667,192.267288,1157.031128,-159.0401,0.908530874820577,1.75869338302162,2.44363970067465,-9.761647,788.092407,166.47522,51.670002,1199.741211,16.141315,"CRUZINT"
164,16,40,31.445,3494.46,0.65859,-0.141534,0.696214,-0.24802,-0.97236,0.15813,0.00865,3491.4,0.033403,-0.165826,0.600959,-0.781175,-0.27536,0.90766,-0.2387,2.38,2.56,2.72,2.98,3.13,3.03,2.93,3.84,3.18,3.93,3.94,4.01,3.85,3.74,3.74,2771,11.545833,60031.446833,191.946777,1157.041138,-159.393875,0.910400803601096,1.7585280554947,2.44554267126215,-9.756108,788.082458,166.477631,51.662743,1199.721436,16.097078,"CRUZINT"
165,16,40,31.48,3494.48,0.658684,-0.141449,0.696056,-0.24826,-0.97484,0.15658,0.00884,3491.42,0.032686,-0.166757,0.600668,-0.781231,-0.27053,0.90051,-0.22126,2.38,2.56,2.72,2.98,3.13,3.04,2.92,3.84,3.18,3.93,3.94,4,3.86,3.74,3.74,2779,11.579167,60031.480167,191.035568,1155.881714,-160.704834,0.916521206965333,1.76265997206981,2.45000701707379,-9.723551,788.014648,166.462677,51.612843,1199.567261,15.751211,"CRUZINT"
166,16,40,31.486,3494.5,0.658714,-0.141432,0.695973,-0.248423,-0.9733,0.15564,0.00624,3491.44,0.032058,-0.167951,0.600144,-0.781404,-0.2759,0.90683,-0.20771,2.38,2.56,2.72,2.98,3.13,3.04,2.92,3.84,3.18,3.93,3.94,4,3.86,3.74,3.74,2781,11.5875,60031.4885,190.887878,1155.675781,-160.944031,0.917482538338857,1.76335905782798,2.45068504958599,-9.720623,787.988281,166.464905,51.611992,1199.527344,15.646514,"CRUZINT"
167,16,40,31.518,3494.52,0.658721,-0.141373,0.69591,-0.248617,-0.96978,0.15765,0.0061,3491.46,0.03133,-0.169289,0.599575,-0.781582,-0.26594,0.89809,-0.21376,2.38,2.56,2.72,2.98,3.13,3.04,2.91,3.83,3.18,3.93,3.94,4,3.86,3.74,3.74,2789,11.620833,60031.521833,189.782547,1153.713135,-161.990067,0.923724348585463,1.77086981117208,2.45388514314617,-9.721981,787.87146,166.522766,51.490562,1199.303589,15.264901,"CRUZINT"
168,16,40,31.523,3494.54,0.658731,-0.141324,0.695824,-0.248858,-0.96941,0.15874,0.00553,3491.48,0.030486,-0.170974,0.599081,-0.781627,-0.26624,0.88184,-0.21498,2.38,2.56,2.72,2.98,3.13,3.05,2.9,3.83,3.18,3.92,3.94,4,3.87,3.74,3.75,2790,11.625,60031.526,188.820267,1152.870239,-163.569885,0.931391964100734,1.77376043349386,2.46024002778079,-9.719945,787.850891,166.532654,51.473927,1199.266357,15.207911,"CRUZINT"
169,16,40,31.579,3494.56,0.658753,-0.141261,0.695723,-0.24912,-0.96908,0.15472,0.00769,3491.5,0.029717,-0.17315,0.598467,-0.781647,-0.27605,0.87627,-0.20286,2.38,2.56,2.73,2.98,3.13,3.04,2.9,3.82,3.18,3.92,3.93,4,3.87,3.74,3.75,2803,11.679167,60031.580167,187.163239,1149.63562,-166.056473,0.942595140484998,1.78434493092357,2.46680046226785,-9.739337,787.480835,166.69429,51.356911,1198.609253,14.38308,"CRUZINT"
170,16,40,31.584,3494.58,0.658834,-0.14112,0.695614,-0.249288,-0.96774,0.15344,0.00551,3491.52,0.028925,-0.175794,0.59744,-0.781873,-0.27133,0.87123,-0.20014,2.38,2.57,2.73,2.98,3.13,3.04,2.89,3.81,3.18,3.92,3.93,4,3.88,3.73,3.75,2804,11.683333,60031.584333,186.750015,1149.364868,-166.588776,0.945284492095102,1.78509408610995,2.46910216767409,-9.752673,787.450378,166.713013,51.36797,1198.536377,14.288175,"CRUZINT"
171,16,40,31.602,3494.6,0.658946,-0.140894,0.695537,-0.249334,-0.96556,0.15635,0.00413,3491.54,0.028175,-0.178956,0.596091,-0.782213,-0.27389,0.84382,-0.20379,2.37,2.57,2.73,2.98,3.13,3.03,2.88,3.81,3.18,3.91,3.93,4,3.88,3.74,3.75,2809,11.704167,60031.605167,186.027817,1147.115356,-167.488251,0.950247449302604,1.79303878424971,2.47048214420267,-9.770061,787.250916,166.798782,51.405857,1198.145386,13.818728,"CRUZINT"
172,16,40,31.607,3494.62,0.659017,-0.140665,0.695502,-0.249374,-0.96659,0.16,0.00309,3491.56,0.027663,-0.18262,0.594311,-0.782738,-0.28544,0.83172,-0.20703,2.37,2.57,2.74,2.98,3.13,3.02,2.88,3.79,3.19,3.9,3.94,4,3.89,3.73,3.75,2810,11.708333,60031.609333,185.629257,1146.728516,-168.017838,0.952973687647794,1.79426469868272,2.47258637742877,-9.774939,787.214722,166.82225,51.416489,1198.075439,13.733603,"CRUZINT"
173,16,40,31.638,3494.64,0.659124,-0.140358,0.695451,-0.249404,-0.96767,0.16253,0.00483,3491.58,0.027184,-0.186757,0.591348,-0.784022,-0.29996,0.82807,-0.22796,2.37,2.58,2.74,2.98,3.13,3.01,2.87,3.78,3.19,3.9,3.94,3.99,3.9,3.73,3.75,2817,11.7375,60031.6385,184.223038,1142.477051,-169.551483,0.962064526732664,1.80930263267078,2.47449363462169,-9.851073,787.057068,166.966827,51.315395,1197.388062,13.047074,"CRUZINT"
174,16,40,31.643,3494.66,0.659246,-0.139954,0.695418,-0.249404,-0.96565,0.16075,0.00126,3491.6,0.027167,-0.191882,0.587128,-0.785955,-0.33036,0.86951,-0.23823,2.37,2.58,2.74,2.97,3.13,3,2.86,3.78,3.19,3.89,3.94,3.98,3.9,3.73,3.76,2819,11.745833,60031.646833,183.845047,1141.276367,-170.060211,0.964702367536893,1.81347952813954,2.47504842777724,-9.849823,786.977173,167.043579,51.274704,1197.200317,12.847317,"CRUZINT"
175,16,40,31.682,3494.68,0.659361,-0.139534,0.695405,-0.249371,-0.96483,0.15911,0.00103,3491.62,0.027741,-0.197246,0.582398,-0.788123,-0.3028,0.92517,-0.26446,2.36,2.58,2.75,2.96,3.13,2.99,2.86,3.77,3.2,3.88,3.93,3.98,3.9,3.73,3.76,2828,11.783333,60031.684333,182.078568,1135.871948,-172.24881,0.976616316283356,1.83277905897851,2.47687472330669,-9.838161,786.683472,167.579529,51.025944,1196.501343,12.004283,"CRUZINT"
176,16,40,31.687,3494.7,0.659509,-0.138987,0.695417,-0.24925,-0.96556,0.15991,0.00272,3491.64,0.028027,-0.202175,0.577209,-0.790676,-0.29515,0.91005,-0.29306,2.36,2.58,2.75,2.95,3.13,2.98,2.85,3.76,3.2,3.88,3.94,3.97,3.9,3.73,3.76,2829,11.7875,60031.6885,181.928375,1135.332153,-172.423615,0.977657907287655,1.83473209804673,2.47685978969719,-9.839307,786.65564,167.658905,51.003998,1196.4375,11.931329,"CRUZINT"
177,16,40,31.719,3494.72,0.659725,-0.138357,0.695405,-0.249062,-0.96763,0.16098,0.00497,3491.66,0.028217,-0.206933,0.57259,-0.792795,-0.31403,0.88555,-0.29103,2.36,2.59,2.75,2.93,3.13,2.96,2.85,3.75,3.21,3.88,3.93,3.96,3.91,3.74,3.76,2837,11.820833,60031.721833,180.507309,1131.270874,-173.968796,0.987374152412335,1.84909486885445,2.47846606330738,-9.849501,786.513245,168.129623,50.878662,1195.915405,11.472732,"CRUZINT"
178,16,40,31.724,3494.74,0.660002,-0.137627,0.695365,-0.248846,-0.9673,0.16253,0.00555,3491.68,0.028365,-0.212266,0.569168,-0.793843,-0.33086,0.86837,-0.26894,2.35,2.59,2.75,2.92,3.14,2.95,2.84,3.75,3.21,3.87,3.93,3.96,3.91,3.74,3.76,2838,11.825,60031.726,180.330307,1130.797363,-174.149445,0.988642803877652,1.85084851454905,2.47871019080832,-9.854725,786.498535,168.160873,50.881355,1195.873535,11.427153,"CRUZINT"
179,16,40,31.762,3494.76,0.660159,-0.137039,0.695347,-0.248803,-0.96772,0.1705,-0.00075,3491.7,0.02871,-0.217905,0.5662,-0.794425,-0.35392,0.87359,-0.23417,2.35,2.59,2.76,2.91,3.14,2.93,2.84,3.75,3.21,3.86,3.93,3.96,3.91,3.73,3.77,2847,11.8625,60031.7635,177.546814,1125.419067,-177.180069,1.00827999800188,1.87071983330513,2.48592985736496,-9.895888,786.352051,168.239365,50.981087,1195.534058,10.928807,"CRUZINT"
180,16,40,31.767,3494.78,0.660067,-0.136959,0.69531,-0.249194,-0.96444,0.18326,-0.00582,3491.72,0.028687,-0.224019,0.562533,-0.79533,-0.33761,0.88341,-0.23298,2.35,2.58,2.76,2.89,3.15,2.92,2.83,3.74,3.22,3.86,3.93,3.95,3.92,3.74,3.77,2848,11.866667,60031.767667,177.376663,1124.844604,-177.409668,1.00976087284048,1.87282680912951,2.48607692174068,-9.899037,786.342773,168.234421,51.002041,1195.496582,10.878895,"CRUZINT"
181,16,40,31.799,3494.8,0.659897,-0.136959,0.695218,-0.249899,-0.97543,0.18295,-0.00105,3491.74,0.02799,-0.230625,0.558002,-0.796657,-0.33925,0.85899,-0.24541,2.35,2.58,2.76,2.88,3.15,2.91,2.82,3.73,3.22,3.85,3.93,3.94,3.92,3.74,3.77,2856,11.9,60031.801,175.082458,1119.666992,-180.082947,1.02640772727234,1.89125660299827,2.49035601036436,-9.865688,786.251099,168.22403,51.045502,1195.110962,10.401368,"CRUZINT"
182,16,40,31.804,3494.82,0.659744,-0.136934,0.695106,-0.250628,-0.98406,0.16167,0.00291,3491.76,0.026733,-0.237958,0.553022,-0.798015,-0.34687,0.84222,-0.24458,2.34,2.58,2.76,2.87,3.15,2.9,2.82,3.73,3.23,3.84,3.93,3.93,3.92,3.74,3.77,2857,11.904167,60031.805167,174.855209,1119.035034,-180.415756,1.0282454601746,1.89342422731137,2.49069509052436,-9.854525,786.223694,168.233902,51.051437,1195.059692,10.338941,"CRUZINT"
183,16,40,31.84,3494.84,0.659659,-0.136847,0.695023,-0.251129,-0.9816,0.14214,0.0053,3491.78,0.025434,-0.245427,0.548012,-0.799251,-0.36511,0.83613,-0.22648,2.34,2.57,2.75,2.86,3.15,2.88,2.81,3.73,3.23,3.84,3.93,3.92,3.92,3.74,3.78,2866,11.941667,60031.842667,172.625122,1113.14624,-183.799561,1.04697057857418,1.91340488916199,2.49491138988581,-9.722869,785.986572,168.396317,51.507626,1194.491943,9.44928,"CRUZINT"
184,16,40,31.845,3494.86,0.659756,-0.136849,0.695052,-0.250793,-0.97559,0.14028,0.00823,3491.8,0.024102,-0.252915,0.543065,-0.800333,-0.3784,0.86776,-0.2398,2.34,2.56,2.75,2.86,3.15,2.87,2.8,3.72,3.23,3.83,3.93,3.92,3.92,3.74,3.78,2867,11.945833,60031.846833,172.881012,1113.203125,-183.375656,1.04516904854471,1.91340142206535,2.4932901081346,-9.714648,785.970337,168.419739,51.565483,1194.427856,9.351226,"CRUZINT"
185,16,40,31.879,3494.88,0.659855,-0.136632,0.69505,-0.250655,-0.97698,0.1488,0.0102,3491.82,0.022224,-0.260794,0.538278,-0.801093,-0.3689,0.86979,-0.2715,2.34,2.55,2.75,2.86,3.15,2.87,2.8,3.71,3.23,3.83,3.93,3.91,3.92,3.74,3.78,2875,11.979167,60031.880167,169.773514,1106.607178,-188.162949,1.07083546681039,1.9346220718179,2.50179697420658,-9.711775,785.790039,168.512924,52.121799,1193.940063,8.716546,"CRUZINT"
186,16,40,31.884,3494.9,0.65992,-0.136339,0.695132,-0.250418,-0.97367,0.16415,0.0173,3491.84,0.019947,-0.268855,0.534275,-0.801168,-0.38564,0.86529,-0.29274,2.33,2.54,2.75,2.86,3.14,2.86,2.79,3.71,3.23,3.82,3.92,3.86,3.92,3.74,3.78,2876,11.983333,60031.884333,169.526688,1105.964722,-188.613098,1.073143079712,1.93661294558993,2.50243566690902,-9.71412,785.769775,168.519516,52.199814,1193.883301,8.649942,"CRUZINT"
187,16,40,31.92,3494.92,0.659977,-0.136207,0.695143,-0.250307,-0.96259,0.17514,0.00283,3491.86,0.017271,-0.276882,0.53086,-0.800766,-0.42184,0.84952,-0.2903,2.32,2.54,2.76,2.87,3.14,2.85,2.77,3.71,3.23,3.82,3.93,3.87,3.92,3.74,3.78,2885,12.020833,60031.921833,166.614105,1099.963257,-193.080246,1.09758289570202,1.95572615459562,2.50990111898252,-9.805589,785.655701,168.469177,53.149639,1193.447266,7.840036,"CRUZINT"
188,16,40,31.925,3494.94,0.659987,-0.136064,0.695189,-0.250232,-0.95489,0.17951,0.00405,3491.88,0.014242,-0.285646,0.527071,-0.800249,-0.47552,0.85681,-0.28359,2.31,2.55,2.76,2.87,3.13,2.84,2.76,3.7,3.24,3.81,3.92,3.86,3.92,3.74,3.78,2886,12.025,60031.926,166.205093,1099.300659,-193.620361,1.10063020682823,1.95778855869069,2.51098045461933,-9.813428,785.649292,168.463074,53.242493,1193.405273,7.768609,"CRUZINT"
189,16,40,31.983,3494.96,0.659983,-0.13586,0.695128,-0.250524,-0.96589,0.17113,-0.00256,3491.9,0.011023,-0.294586,0.522411,-0.800115,-0.50201,0.84581,-0.3118,2.3,2.55,2.77,2.88,3.12,2.83,2.75,3.7,3.24,3.8,3.92,3.87,3.92,3.74,3.78,2900,12.083333,60031.984333,161.084778,1090.147461,-200.202057,1.13893143124939,1.98672080319383,2.52070491165157,-9.822766,785.618835,168.434891,54.272568,1193.251953,7.357069,"CRUZINT"
190,16,40,31.989,3494.98,0.659969,-0.13578,0.695106,-0.250664,-0.97363,0.15505,-0.00398,3491.92,0.007604,-0.303845,0.516536,-0.800507,-0.46746,0.78925,-0.32553,2.29,2.55,2.77,2.89,3.1,2.83,2.73,3.7,3.24,3.8,3.92,3.87,3.92,3.74,3.78,2902,12.091667,60031.992667,160.277267,1088.771118,-201.170471,1.1450382276816,1.99116575155598,2.52209998143325,-9.794691,785.625183,168.410141,54.526108,1193.26416,7.29779,"CRUZINT"
191,16,40,31.993,3495,0.660227,-0.135867,0.69491,-0.250482,-0.97386,0.15547,-0.00832,3491.94,0.004509,-0.312995,0.510045,-0.801167,-0.45215,0.73446,-0.2725,2.29,2.55,2.77,2.91,3.08,2.83,2.72,3.7,3.24,3.79,3.92,3.87,3.92,3.74,3.78,2903,12.095833,60031.996833,159.784027,1088.029419,-201.711578,1.14850554794091,1.99351564046655,2.5229948455349,-9.783975,785.63031,168.403748,54.648205,1193.265503,7.274954,"CRUZINT"
192,16,40,32.043,3495.02,0.660341,-0.135634,0.694903,-0.250326,-0.97688,0.15958,0.00827,3491.96,0.001785,-0.322642,0.503079,-0.801755,-0.49735,0.73872,-0.23771,2.28,2.56,2.78,2.92,3.07,2.82,2.71,3.69,3.25,3.79,3.91,3.87,3.92,3.74,3.78,2915,12.145833,60032.046833,153.807983,1078.549927,-207.42485,1.18803878603041,2.02390116755971,2.52846215612861,-9.606937,785.687134,168.374359,55.826099,1193.395386,7.137031,"CRUZINT"
193,16,40,32.048,3495.04,0.660547,-0.135318,0.694891,-0.249987,-0.98291,0.16153,0.00056,3491.98,-0.001079,-0.333477,0.49595,-0.801764,-0.52537,0.76524,-0.2658,2.27,2.56,2.78,2.93,3.06,2.82,2.7,3.69,3.25,3.78,3.91,3.87,3.92,3.74,3.78,2916,12.15,60032.051,153.248566,1077.702759,-207.849243,1.19152769272145,2.02674801393912,2.52863508207986,-9.58566,785.694031,168.390015,55.93869,1193.430542,7.131239,"CRUZINT"
194,16,40,32.053,3495.06,0.66061,-0.135241,0.694872,-0.249915,-0.97609,0.1691,0.00134,3492,-0.003763,-0.344574,0.488576,-0.801591,-0.53613,0.74726,-0.30005,2.27,2.57,2.79,2.94,3.05,2.82,2.7,3.69,3.25,3.78,3.91,3.87,3.92,3.74,3.78,2917,12.154167,60032.055167,152.666519,1076.76355,-208.431702,1.19537930476735,2.02971896871575,2.52893703444524,-9.565038,785.696655,168.403809,56.061615,1193.477173,7.121279,"CRUZINT"
195,16,40,32.096,3495.08,0.660693,-0.135155,0.694823,-0.249879,-0.96648,0.17603,0.00532,3492.02,-0.006699,-0.355638,0.479925,-0.801965,-0.51439,0.70433,-0.2956,2.26,2.58,2.8,2.96,3.04,2.82,2.69,3.69,3.25,3.78,3.91,3.87,3.92,3.74,3.78,2927,12.195833,60032.096833,149.951965,1070.639282,-207.091492,1.21237582181069,2.05656621496524,2.51795858908991,-9.396467,785.836548,168.482666,57.322948,1193.92334,7.25751,"CRUZINT"
196,16,40,32.101,3495.1,0.660756,-0.134871,0.694902,-0.249645,-0.97306,0.17116,0.01277,3492.04,-0.009782,-0.367525,0.469475,-0.80276,-0.54375,0.70513,-0.25762,2.24,2.59,2.8,2.97,3.04,2.82,2.68,3.69,3.25,3.77,3.9,3.87,3.92,3.74,3.78,2928,12.2,60032.101,149.320389,1069.738525,-207.43248,1.21601349797082,2.05964049052968,2.51778569481109,-9.384447,785.851135,168.485916,57.432735,1193.954468,7.260775,"CRUZINT"
197,16,40,32.121,3495.12,0.66099,-0.134547,0.694872,-0.249284,-0.97796,0.16071,0.00729,3492.06,-0.012939,-0.380799,0.457057,-0.803694,-0.58058,0.69545,-0.23945,2.23,2.6,2.81,2.98,3.03,2.82,2.67,3.69,3.24,3.77,3.9,3.87,3.92,3.74,3.78,2933,12.220833,60032.121833,148.688812,1068.837769,-207.773453,1.22119135505624,2.06351807259797,2.51792206552853,-9.37877,785.936096,168.492371,58.003906,1194.072632,7.137054,"CRUZINT"
198,16,40,32.126,3495.14,0.661164,-0.134597,0.694745,-0.249149,-0.96816,0.16554,0.00028,3492.08,-0.01604,-0.39399,0.443993,-0.804602,-0.68987,0.67379,-0.28092,2.22,2.61,2.81,2.99,3.02,2.82,2.67,3.69,3.24,3.77,3.9,3.87,3.92,3.74,3.78,2934,12.225,60032.126,148.688812,1068.837769,-207.773453,1.22158346720427,2.06375216798403,2.51798228769027,-9.379032,785.956909,168.49765,58.119389,1194.102417,7.103795,"CRUZINT"
199,16,40,32.179,3495.16,0.661205,-0.134625,0.694625,-0.24936,-0.96211,0.18178,0.00056,3492.1,-0.018785,-0.406136,0.431275,-0.805421,-0.71955,0.65573,-0.34961,2.2,2.62,2.82,3.01,3.01,2.82,2.66,3.69,3.24,3.77,3.9,3.87,3.92,3.74,3.78,2947,12.279167,60032.180167,148.688812,1068.837769,-207.773453,1.2284537730031,2.06644792380988,2.52023031373415,-9.428598,786.092102,168.803665,60.139191,1194.292969,6.70263,"CRUZINT"
200,16,40,32.184,3495.18,0.66142,-0.134622,0.694393,-0.249436,-0.973,0.17737,0.00082,3492.12,-0.021166,-0.418263,0.418642,-0.805821,-0.57652,0.65923,-0.36546,2.19,2.63,2.83,3.02,3,2.82,2.66,3.68,3.24,3.76,3.9,3.87,3.92,3.74,3.78,2948,12.283333,60032.184333,148.688812,1068.837769,-207.773453,1.22902264447836,2.0666137926323,2.52046348318479,-9.427688,786.08728,168.840378,60.316353,1194.28064,6.651569,"CRUZINT"
201,16,40,32.204,3495.2,0.661776,-0.134538,0.694098,-0.249357,-0.98024,0.16096,-0.00148,3492.14,-0.023673,-0.43077,0.406359,-0.80545,-0.52562,0.66788,-0.3284,2.17,2.65,2.83,3.04,2.99,2.83,2.66,3.68,3.24,3.76,3.9,3.87,3.92,3.74,3.78,2953,12.304167,60032.205167,148.688812,1068.837769,-207.773453,1.23149471737836,2.06739145143969,2.52142026892388,-9.433874,786.088684,168.983017,61.115891,1194.195923,6.34559,"CRUZINT"
202,16,40,32.209,3495.22,0.662023,-0.134633,0.69381,-0.249456,-0.96926,0.15496,-0.00542,3492.16,-0.026765,-0.443422,0.395105,-0.804085,-0.64668,0.66438,-0.29496,2.16,2.66,2.84,3.05,2.98,2.83,2.66,3.68,3.24,3.76,3.9,3.87,3.92,3.74,3.78,2954,12.308333,60032.209333,148.688812,1068.837769,-207.773453,1.23197678980959,2.06757987049094,2.52157309220049,-9.434761,786.101318,168.98497,61.272888,1194.185913,6.277434,"CRUZINT"
203,16,40,32.263,3495.24,0.662312,-0.134786,0.693488,-0.249499,-0.96981,0.16,-0.00868,3492.18,-0.030299,-0.455345,0.385265,-0.802069,-0.84385,0.65151,-0.30955,2.15,2.67,2.84,3.06,2.98,2.83,2.66,3.68,3.24,3.75,3.9,3.87,3.92,3.74,3.78,2967,12.3625,60032.2635,148.688812,1068.837769,-207.773453,1.23711430543063,2.06994192670935,2.52286145248449,-9.510941,786.367004,168.79953,62.914753,1194.196289,5.562974,"CRUZINT"
204,16,40,32.268,3495.26,0.662472,-0.135204,0.693105,-0.249912,-0.97541,0.16581,-0.01535,3492.2,-0.032945,-0.466214,0.376082,-0.800076,-0.86314,0.59237,-0.32894,2.14,2.68,2.85,3.07,2.97,2.84,2.66,3.68,3.24,3.75,3.9,3.87,3.92,3.74,3.78,2969,12.370833,60032.271833,148.688812,1068.837769,-207.773453,1.23793775898955,2.07021228921067,2.52315972481272,-9.490426,786.414917,168.797195,63.168861,1194.184692,5.482784,"CRUZINT"
205,16,40,32.273,3495.28,0.662454,-0.135647,0.692766,-0.250658,-0.95865,0.17416,-0.00654,3492.22,-0.034253,-0.477228,0.366575,-0.797937,-0.73882,0.55486,-0.31328,2.13,2.69,2.85,3.08,2.96,2.84,2.67,3.68,3.24,3.75,3.9,3.88,3.93,3.74,3.78,2970,12.375,60032.276,148.688812,1068.837769,-207.773453,1.23838640563686,2.07038941074693,2.5232952030114,-9.479275,786.444702,168.798035,63.313805,1194.175537,5.418549,"CRUZINT"
206,16,40,32.324,3495.3,0.662533,-0.13581,0.692402,-0.251368,-0.95419,0.18281,-0.00603,3492.24,-0.035657,-0.488823,0.356023,-0.795631,-0.66917,0.58901,-0.25997,2.12,2.7,2.86,3.09,2.95,2.84,2.67,3.68,3.25,3.75,3.9,3.88,3.92,3.74,3.78,2982,12.425,60032.326,148.688812,1068.837769,-207.773453,1.24276308499791,2.07176095767093,2.52491616059187,-9.21589,786.652771,168.695572,64.830627,1193.843994,4.566091,"CRUZINT"
207,16,40,32.329,3495.32,0.662806,-0.135751,0.69208,-0.251566,-0.9751,0.15876,0.00058,3492.26,-0.038978,-0.499993,0.344951,-0.793408,-0.77311,0.59528,-0.25637,2.11,2.7,2.87,3.1,2.94,2.84,2.67,3.68,3.25,3.76,3.9,3.88,3.92,3.74,3.78,2983,12.429167,60032.330167,148.688812,1068.837769,-207.773453,1.24298333131315,2.07179322770039,2.52502969194903,-9.195959,786.659668,168.686172,64.919296,1193.800049,4.496017,"CRUZINT"
208,16,40,32.334,3495.34,0.663173,-0.13561,0.691791,-0.251469,-0.99051,0.1288,0.00143,3492.28,-0.042584,-0.50975,0.334934,-0.791303,-0.8821,0.58733,-0.29325,2.1,2.71,2.87,3.11,2.94,2.84,2.68,3.69,3.25,3.76,3.91,3.88,3.92,3.74,3.78,2984,12.433333,60032.334333,148.688812,1068.837769,-207.773453,1.24322743413526,2.07181286181169,2.52516984138225,-9.180026,786.686523,168.683319,65.011292,1193.756958,4.436286,"CRUZINT"
209,16,40,32.383,3495.36,0.663435,-0.135806,0.691533,-0.251382,-0.9808,0.14687,-0.00457,3492.3,-0.045033,-0.518709,0.325641,-0.789222,-0.83902,0.51582,-0.32042,2.1,2.71,2.88,3.11,2.94,2.84,2.68,3.69,3.25,3.76,3.91,3.88,3.92,3.74,3.78,2996,12.483333,60032.384333,148.688812,1068.837769,-207.773453,1.24657090484593,2.07218428069065,2.52698901395819,-8.980759,786.868652,168.73555,66.269562,1193.186157,3.595202,"CRUZINT"
210,16,40,32.388,3495.38,0.663631,-0.135759,0.69131,-0.251504,-0.96983,0.18391,-0.00087,3492.32,-0.047349,-0.527625,0.315555,-0.787271,-0.75605,0.48268,-0.28006,2.09,2.72,2.89,3.12,2.94,2.84,2.69,3.69,3.25,3.76,3.91,3.88,3.92,3.75,3.79,2997,12.4875,60032.3885,148.688812,1068.837769,-207.773453,1.24683158115125,2.07222287978141,2.52712151883933,-8.967361,786.886047,168.735794,66.364189,1193.14856,3.536173,"CRUZINT"
211,16,40,32.393,3495.4,0.663681,-0.135564,0.691252,-0.251636,-0.96312,0.18501,0.00535,3492.34,-0.050121,-0.536862,0.304154,-0.785339,-0.81236,0.49717,-0.24212,2.09,2.72,2.89,3.13,2.93,2.84,2.69,3.69,3.25,3.76,3.91,3.88,3.92,3.74,3.78,2999,12.495833,60032.396833,148.688812,1068.837769,-207.773453,1.24711021428525,2.07230777195633,2.52722398635976,-8.948106,786.927124,168.729156,66.498138,1193.068604,3.382826,"CRUZINT"
212,16,40,32.438,3495.42,0.663996,-0.135402,0.691007,-0.251564,-0.96744,0.16124,-0.00106,3492.36,-0.052878,-0.545745,0.292059,-0.783625,-0.92857,0.48253,-0.24806,2.08,2.72,2.9,3.13,2.93,2.84,2.69,3.69,3.25,3.76,3.91,3.89,3.92,3.74,3.79,3009,12.5375,60032.4385,148.688812,1068.837769,-207.773453,1.24707809488317,2.07224805563494,2.52725686463952,-8.865115,787.095215,168.719421,66.666862,1192.788208,2.934071,"CRUZINT"
213,16,40,32.443,3495.44,0.664313,-0.135396,0.690724,-0.251508,-0.96978,0.15506,-0.00631,3492.38,-0.054162,-0.553555,0.28021,-0.782384,-1.01482,0.45313,-0.29679,2.08,2.73,2.9,3.13,2.94,2.84,2.69,3.69,3.25,3.76,3.92,3.89,3.92,3.75,3.78,3011,12.545833,60032.446833,148.688812,1068.837769,-207.773453,1.247004610076,2.0722258856993,2.52722965130393,-8.843781,787.122559,168.753189,66.670547,1192.750488,2.874425,"CRUZINT"
214,16,40,32.461,3495.46,0.664623,-0.135378,0.690362,-0.251692,-0.96404,0.17376,-0.0178,3492.4,-0.05411,-0.56057,0.268107,-0.781635,-0.97116,0.41636,-0.33608,2.07,2.73,2.9,3.13,2.94,2.84,2.69,3.69,3.25,3.76,3.92,3.89,3.92,3.74,3.79,3015,12.5625,60032.4635,148.688812,1068.837769,-207.773453,1.2469476215818,2.07227066476363,2.52715308530665,-8.794435,787.151184,168.865524,66.701622,1192.692627,2.747493,"CRUZINT"
215,16,40,32.466,3495.48,0.665022,-0.135183,0.690024,-0.251671,-0.96599,0.18094,-0.01625,3492.42,-0.053585,-0.566777,0.256881,-0.780964,-0.80955,0.43961,-0.33243,2.07,2.74,2.91,3.13,2.95,2.84,2.69,3.69,3.25,3.76,3.92,3.9,3.92,3.74,3.79,3016,12.566667,60032.467667,148.688812,1068.837769,-207.773453,1.24690944154168,2.07224704558635,2.52714976823591,-8.788616,787.161194,168.903824,66.705978,1192.666626,2.711874,"CRUZINT"
216,16,40,32.518,3495.5,0.66549,-0.134829,0.689739,-0.251404,-0.97648,0.15995,-0.01399,3492.44,-0.053666,-0.573404,0.24621,-0.779556,-0.65063,0.43056,-0.29372,2.06,2.74,2.91,3.13,2.96,2.84,2.7,3.69,3.25,3.77,3.93,3.91,3.92,3.74,3.79,3029,12.620833,60032.521833,148.688812,1068.837769,-207.773453,1.24634371568507,2.07182695453981,2.52716296758726,-8.815393,787.081726,169.578522,66.835236,1192.168823,2.028452,"CRUZINT"
217,16,40,32.526,3495.52,0.665944,-0.134577,0.689418,-0.251218,-0.97431,0.15102,-0.0154,3492.46,-0.052527,-0.58011,0.237427,-0.777394,-0.95729,0.44861,-0.2831,2.06,2.74,2.92,3.14,2.96,2.84,2.7,3.69,3.25,3.77,3.93,3.92,3.92,3.74,3.78,3030,12.625,60032.526,148.688812,1068.837769,-207.773453,1.24627976290452,2.07176540713096,2.52717698507015,-8.840657,787.078125,169.622772,66.849937,1192.109375,1.952968,"CRUZINT"
218,16,40,32.54,3495.54,0.66623,-0.134546,0.689149,-0.251215,-0.96753,0.16223,-0.0129,3492.48,-0.050815,-0.586075,0.229533,-0.775402,-0.93767,0.44842,-0.26296,2.06,2.75,2.92,3.14,2.96,2.84,2.7,3.69,3.25,3.77,3.93,3.92,3.91,3.74,3.79,3034,12.641667,60032.542667,148.688812,1068.837769,-207.773453,1.24594004344556,2.07142784586057,2.52726075344528,-8.919094,787.054199,169.729233,66.894447,1191.842163,1.639829,"CRUZINT"
219,16,40,32.545,3495.56,0.666391,-0.13451,0.688873,-0.251564,-0.96519,0.17751,-0.01998,3492.5,-0.049729,-0.591492,0.221227,-0.773772,-0.86131,0.43396,-0.23621,2.05,2.75,2.92,3.14,2.96,2.84,2.7,3.69,3.25,3.77,3.94,3.93,3.91,3.74,3.78,3035,12.645833,60032.546833,148.688812,1068.837769,-207.773453,1.24585324906176,2.07137505238639,2.52725220368625,-8.93714,787.049133,169.735428,66.901039,1191.788696,1.56774,"CRUZINT"
220,16,40,32.579,3495.58,0.666384,-0.134745,0.688675,-0.252,-0.96319,0.18082,-0.02572,3492.52,-0.050262,-0.596866,0.212305,-0.772109,-0.78209,0.42409,-0.2198,2.05,2.75,2.92,3.14,2.97,2.84,2.7,3.7,3.25,3.77,3.94,3.94,3.91,3.74,3.78,3043,12.679167,60032.580167,148.688812,1068.837769,-207.773453,1.24502342139226,2.07104998491771,2.52700914526694,-9.122262,787.089417,169.674973,66.907013,1191.404785,1.00236,"CRUZINT"
221,16,40,32.584,3495.6,0.666226,-0.135259,0.688431,-0.252805,-0.95951,0.17555,-0.02924,3492.54,-0.052523,-0.602694,0.203229,-0.76987,-1.01454,0.42364,-0.21191,2.05,2.75,2.92,3.14,2.97,2.84,2.7,3.69,3.25,3.77,3.95,3.94,3.91,3.75,3.78,3044,12.683333,60032.584333,148.688812,1068.837769,-207.773453,1.24494170900249,2.07105137855807,2.52695530467026,-9.139433,787.098877,169.660492,66.920761,1191.354858,0.908854,"CRUZINT"
222,16,40,32.621,3495.62,0.665921,-0.135911,0.688317,-0.253567,-0.95937,0.1694,-0.02673,3492.56,-0.054953,-0.607614,0.195236,-0.767899,-0.91935,0.41891,-0.21122,2.05,2.76,2.92,3.14,2.97,2.84,2.7,3.7,3.25,3.77,3.95,3.95,3.91,3.75,3.78,3053,12.720833,60032.621833,148.688812,1068.837769,-207.773453,1.24498491078607,2.07127896290315,2.52677978410932,-9.168785,787.126587,169.538406,67.226288,1190.963501,0.129932,"CRUZINT"
223,16,40,32.626,3495.64,0.665667,-0.136453,0.688216,-0.254217,-0.97084,0.15491,-0.0226,3492.58,-0.057476,-0.612407,0.187036,-0.765945,-0.90294,0.38341,-0.20517,2.05,2.76,2.92,3.14,2.97,2.85,2.71,3.7,3.25,3.77,3.95,3.96,3.9,3.75,3.78,3054,12.725,60032.626,148.688812,1068.837769,-207.773453,1.24506940063409,2.07131566266305,2.52680136180656,-9.17233,787.134033,169.525772,67.277603,1190.925293,0.054109,"CRUZINT"
224,16,40,32.659,3495.66,0.665563,-0.136883,0.688138,-0.25447,-0.98021,0.13865,-0.01467,3492.6,-0.060923,-0.617313,0.178857,-0.76369,-0.93698,0.34917,-0.19653,2.06,2.76,2.92,3.14,2.94,2.85,2.71,3.7,3.25,3.77,3.95,3.96,3.9,3.75,3.78,3062,12.758333,60032.659333,73.650887,990.087524,-209.198242,1.5504502431867,2.33632932199912,2.37564543226908,-9.147819,787.149841,169.379471,67.761734,1190.666748,-0.570434,"CRUZINT"
225,16,40,32.664,3495.68,0.665575,-0.13698,0.688018,-0.254711,-0.98071,0.14019,-0.00555,3492.62,-0.06403,-0.622486,0.170757,-0.761087,-0.79041,0.31569,-0.17845,2.06,2.76,2.92,3.14,2.94,2.85,2.71,3.7,3.25,3.77,3.96,3.96,3.9,3.75,3.78,3064,12.766667,60032.667667,72.745605,989.628967,-209.20993,1.5539848051738,2.33769333853118,2.37441285059008,-9.151937,787.159485,169.342896,67.876869,1190.598022,-0.720343,"CRUZINT"
226,16,40,32.701,3495.7,0.66534,-0.13695,0.688302,-0.254573,-0.97433,0.15543,-0.00466,3492.64,-0.065999,-0.627773,0.164219,-0.758009,-1.10404,0.32141,-0.19796,2.07,2.76,2.92,3.14,2.94,2.85,2.71,3.7,3.25,3.78,3.96,3.96,3.89,3.75,3.78,3072,12.8,60032.701,69.128868,987.997437,-209.253311,1.56845509059907,2.34268519670081,2.36969830030646,-9.147361,787.195007,169.223572,68.4496,1190.361938,-1.3471,"CRUZINT"
227,16,40,32.706,3495.72,0.665453,-0.136867,0.68823,-0.254518,-0.96741,0.17174,-0.00513,3492.66,-0.067189,-0.632471,0.159515,-0.754998,-0.92269,0.32422,-0.1957,2.07,2.76,2.92,3.14,2.94,2.85,2.71,3.7,3.25,3.78,3.97,3.97,3.89,3.75,3.78,3074,12.808333,60032.709333,68.3554,987.73114,-209.304413,1.57163537669273,2.34343219083118,2.36895608531957,-9.150705,787.216248,169.20903,68.598907,1190.310303,-1.487509,"CRUZINT"
228,16,40,32.741,3495.74,0.665568,-0.136748,0.688173,-0.254434,-0.96654,0.17254,-0.00556,3492.68,-0.069492,-0.637152,0.155272,-0.75173,-0.93368,0.33627,-0.18452,2.07,2.76,2.92,3.14,2.95,2.85,2.71,3.71,3.25,3.79,3.97,3.97,3.88,3.75,3.78,3082,12.841667,60032.742667,65.305077,986.824219,-209.528229,1.58449257632506,2.34590584560087,2.36629552026292,-9.179786,787.335876,169.193787,69.284538,1190.156616,-2.006308,"CRUZINT"
229,16,40,32.763,3495.76,0.665633,-0.136594,0.688205,-0.254262,-0.96838,0.16188,-0.01217,3492.7,-0.071871,-0.641595,0.150658,-0.748661,-0.97491,0.33796,-0.16262,2.07,2.76,2.92,3.14,2.95,2.86,2.71,3.71,3.26,3.79,3.98,3.97,3.87,3.76,3.78,3087,12.8625,60032.7635,63.453144,986.454041,-209.636459,1.59220198306512,2.3469689212351,2.36496185282284,-9.180288,787.424133,169.214554,69.674576,1190.081421,-2.310154,"CRUZINT"
230,16,40,32.769,3495.78,0.665757,-0.136362,0.688199,-0.254078,-0.96865,0.16005,-0.01597,3492.72,-0.075045,-0.645741,0.146306,-0.745642,-0.81029,0.32131,-0.14666,2.07,2.76,2.92,3.14,2.95,2.86,2.72,3.71,3.26,3.8,3.98,3.97,3.87,3.76,3.77,3089,12.870833,60032.771833,62.712818,986.318848,-209.697952,1.59528266426582,2.34723296668317,2.36455646280422,-9.176306,787.461243,169.234436,69.83065,1190.034912,-2.419735,"CRUZINT"
231,16,40,32.819,3495.8,0.665856,-0.136147,0.688187,-0.253966,-0.97004,0.16765,-0.01742,3492.74,-0.078122,-0.649709,0.142618,-0.742587,-1.12565,0.30075,-0.16293,2.07,2.76,2.92,3.14,2.95,2.86,2.72,3.71,3.26,3.8,3.98,3.96,3.86,3.77,3.77,3101,12.920833,60032.821833,58.670258,985.463928,-209.811844,1.61100253203918,2.34917518131735,2.36159800562416,-9.017705,787.737976,169.305984,70.372276,1189.872803,-2.843571,"CRUZINT"
232,16,40,32.829,3495.82,0.666116,-0.135891,0.688038,-0.253826,-0.97382,0.17271,-0.02037,3492.76,-0.080581,-0.652997,0.140024,-0.739929,-0.92709,0.26915,-0.15337,2.07,2.76,2.92,3.14,2.95,2.87,2.73,3.72,3.26,3.8,3.98,3.96,3.84,3.77,3.76,3103,12.929167,60032.830167,57.974968,985.29248,-209.78743,1.6133735488083,2.34955565643448,2.36102147920256,-8.975346,787.777283,169.311249,70.372276,1189.872803,-2.843571,"CRUZINT"
233,16,40,32.84,3495.84,0.666424,-0.135683,0.687804,-0.253761,-0.97414,0.17194,-0.02192,3492.78,-0.083369,-0.656147,0.13683,-0.737427,-0.93567,0.27611,-0.12683,2.08,2.76,2.92,3.14,2.96,2.87,2.74,3.72,3.26,3.81,3.98,3.95,3.83,3.77,3.76,3106,12.941667,60032.842667,56.907051,985.028992,-209.739746,1.61701216285859,2.35015330242309,2.36010118748523,-8.905616,787.834229,169.306671,70.372276,1189.872803,-2.843571,"CRUZINT"
234,16,40,32.862,3495.86,0.666749,-0.135481,0.687514,-0.253803,-0.97316,0.16938,-0.02141,3492.8,-0.086806,-0.65896,0.133105,-0.7352,-0.9669,0.28146,-0.12197,2.08,2.76,2.92,3.14,2.96,2.87,2.75,3.72,3.26,3.81,3.99,3.94,3.83,3.78,3.76,3111,12.9625,60032.8635,55.236485,984.671265,-209.551163,1.62271520850401,2.35120145099958,2.3584943053939,-8.811475,787.928284,169.323822,70.372276,1189.872803,-2.843571,"CRUZINT"
235,16,40,32.869,3495.88,0.667074,-0.135343,0.687204,-0.253861,-0.97238,0.17125,-0.01819,3492.82,-0.089685,-0.66151,0.129419,-0.73322,-0.97243,0.29665,-0.13984,2.08,2.76,2.92,3.14,2.96,2.88,2.76,3.72,3.26,3.82,3.99,3.94,3.82,3.78,3.76,3113,12.970833,60032.871833,54.605572,984.56842,-209.490341,1.6248698056163,2.35148482031967,2.35798300182383,-8.765679,787.961487,169.329041,70.372276,1189.872803,-2.843571,"CRUZINT"
236,16,40,32.902,3495.9,0.667248,-0.135278,0.686994,-0.254007,-0.97089,0.17212,-0.0144,3492.84,-0.092172,-0.663699,0.125843,-0.731554,-0.90735,0.29977,-0.14852,2.08,2.76,2.92,3.14,2.96,2.88,2.77,3.73,3.26,3.83,3.99,3.93,3.82,3.78,3.76,3121,13.004167,60032.905167,52.526573,984.288086,-209.374146,1.63642215763161,2.3529166483139,2.35517173735435,-8.601424,788.131226,169.361435,71.610931,1189.390747,-3.80644,"CRUZINT"
237,16,40,32.908,3495.92,0.667571,-0.135171,0.686658,-0.254125,-0.97144,0.16881,-0.01355,3492.86,-0.095682,-0.66642,0.121723,-0.729323,-1.07202,0.28929,-0.13804,2.08,2.76,2.92,3.14,2.96,2.89,2.77,3.73,3.26,3.83,3.99,3.93,3.82,3.78,3.76,3122,13.008333,60032.909333,52.287525,984.256592,-209.371658,1.63740851479486,2.35302956776402,2.35492876552848,-8.581105,788.149475,169.366287,71.658577,1189.385498,-3.851068,"CRUZINT"
238,16,40,32.941,3495.94,0.667889,-0.135153,0.686284,-0.254306,-0.96985,0.1645,-0.0135,3492.88,-0.098255,-0.668265,0.118783,-0.727776,-0.93091,0.28313,-0.10791,2.08,2.76,2.92,3.14,2.96,2.9,2.78,3.74,3.26,3.84,4,3.93,3.83,3.78,3.76,3130,13.041667,60032.942667,50.432739,983.896301,-209.252792,1.6458289089738,2.35438928659844,2.35238032177087,-8.449213,788.359863,169.356277,72.245392,1189.279907,-4.283701,"CRUZINT"
239,16,40,32.947,3495.96,0.668122,-0.135168,0.686011,-0.254424,-0.96617,0.16368,-0.01559,3492.9,-0.100594,-0.67026,0.115559,-0.72614,-0.92916,0.27093,-0.09844,2.08,2.76,2.92,3.14,2.96,2.91,2.78,3.74,3.25,3.85,4,3.93,3.83,3.78,3.76,3132,13.05,60032.951,50.014351,983.806702,-209.212036,1.64789781508423,2.35476011973252,2.35169592874365,-8.428482,788.415283,169.332123,72.425186,1189.247559,-4.403461,"CRUZINT"
240,16,40,32.986,3495.98,0.668373,-0.135256,0.685679,-0.254613,-0.96582,0.16738,-0.02482,3492.92,-0.102687,-0.672509,0.112572,-0.724234,-0.9341,0.25467,-0.09565,2.08,2.76,2.92,3.14,2.96,2.92,2.79,3.75,3.25,3.85,4,3.93,3.83,3.79,3.76,3141,13.0875,60032.9885,48.218403,983.290039,-209.040466,1.656884442313,2.35667834416545,2.34831743719539,-8.33512,788.622009,169.150452,73.229729,1189.080444,-4.976164,"CRUZINT"
241,16,40,32.994,3496,0.668644,-0.135308,0.685307,-0.254874,-0.97116,0.16926,-0.02424,3492.94,-0.105277,-0.674711,0.109583,-0.72227,-0.9353,0.28744,-0.08869,2.08,2.76,2.92,3.14,2.96,2.93,2.79,3.75,3.25,3.86,4.01,3.92,3.84,3.79,3.75,3143,13.095833,60032.996833,47.824158,983.147156,-209.002075,1.6588215468879,2.35716453409352,2.34749556080061,-8.312367,788.668213,169.107361,73.399002,1189.054932,-5.090951,"CRUZINT"
242,16,40,33.02,3496.02,0.668918,-0.135287,0.684955,-0.255113,-0.97255,0.16551,-0.02689,3492.96,-0.1074,-0.676875,0.106623,-0.720373,-0.9387,0.27332,-0.075,2.08,2.76,2.92,3.14,2.96,2.94,2.8,3.76,3.25,3.86,4.01,3.92,3.84,3.79,3.76,3149,13.120833,60033.021833,46.664497,982.817688,-208.910309,1.66466700682898,2.35835484988696,2.34524740973841,-8.226132,788.790771,168.990997,73.932785,1188.969482,-5.466619,"CRUZINT"
243,16,40,33.026,3496.04,0.669197,-0.135272,0.684606,-0.255325,-0.97569,0.1622,-0.02614,3492.98,-0.109331,-0.679005,0.103491,-0.718532,-0.87861,0.29426,-0.07676,2.08,2.76,2.92,3.14,2.96,2.94,2.81,3.76,3.25,3.87,4.01,3.91,3.84,3.8,3.75,3150,13.125,60033.026,46.481026,982.77179,-208.895752,1.6655837203334,2.35851088830747,2.34491937058695,-8.21289,788.809082,168.975525,74.014694,1188.954712,-5.521174,"CRUZINT"
244,16,40,33.082,3496.06,0.669529,-0.135228,0.684263,-0.255399,-0.97355,0.15683,-0.02865,3493,-0.111759,-0.681498,0.100196,-0.716262,-0.98617,0.26322,-0.07821,2.08,2.76,2.92,3.14,2.96,2.95,2.82,3.77,3.25,3.88,4,3.9,3.84,3.8,3.75,3164,13.183333,60033.084333,44.228897,981.995605,-208.786423,1.67755620588692,2.36120538958506,2.33982631606369,-8.015929,789.079956,168.700104,75.226067,1188.718994,-6.485425,"CRUZINT"
245,16,40,33.088,3496.08,0.669892,-0.134979,0.683944,-0.255434,-0.96952,0.15287,-0.02759,3493.02,-0.113313,-0.683214,0.098221,-0.714654,-0.94024,0.26231,-0.06588,2.08,2.76,2.92,3.14,2.97,2.96,2.83,3.77,3.24,3.89,4,3.89,3.84,3.8,3.75,3165,13.1875,60033.0885,44.088223,981.933411,-208.769806,1.67829582511184,2.36147441736318,2.33939980737549,-8.005529,789.098938,168.678833,75.297203,1188.697876,-6.571649,"CRUZINT"
246,16,40,33.105,3496.1,0.670304,-0.134628,0.683644,-0.255341,-0.9695,0.15766,-0.02311,3493.04,-0.114771,-0.685057,0.095909,-0.712969,-0.94294,0.25957,-0.06042,2.08,2.77,2.92,3.14,2.97,2.97,2.84,3.78,3.23,3.9,4,3.89,3.84,3.81,3.75,3169,13.204167,60033.105167,43.508808,981.63324,-208.685684,1.68125858360739,2.36269541206599,2.33753706003457,-7.977599,789.183838,168.612137,75.571503,1188.628174,-6.896091,"CRUZINT"
247,16,40,33.11,3496.12,0.670719,-0.134288,0.68332,-0.255299,-0.96722,0.16609,-0.02926,3493.06,-0.115765,-0.68689,0.093604,-0.71135,-0.95612,0.24116,-0.05847,2.08,2.77,2.92,3.14,2.97,2.98,2.85,3.78,3.24,3.9,4.01,3.89,3.84,3.81,3.76,3171,13.2125,60033.1135,43.223,981.475525,-208.634628,1.68267353281213,2.36334850496409,2.33657130707966,-7.963566,789.219971,168.587189,75.69397,1188.599243,-7.051908,"CRUZINT"
248,16,40,33.143,3496.14,0.671085,-0.134008,0.683013,-0.255306,-0.9669,0.1697,-0.03088,3493.08,-0.116433,-0.688667,0.091345,-0.709815,-0.95415,0.25488,-0.05973,2.08,2.77,2.92,3.14,2.97,2.98,2.86,3.79,3.23,3.91,4.01,3.89,3.85,3.81,3.75,3179,13.245833,60033.146833,42.124989,980.856628,-208.356796,1.68833559670289,2.36579194489264,2.33283715590998,-7.937467,789.382141,168.53775,76.217735,1188.392334,-7.641819,"CRUZINT"
249,16,40,33.148,3496.16,0.671337,-0.133709,0.682814,-0.255332,-0.9647,0.16708,-0.02972,3493.1,-0.117204,-0.690192,0.088726,-0.708538,-0.95464,0.26842,-0.06046,2.08,2.77,2.92,3.14,2.97,2.99,2.87,3.79,3.23,3.92,4.02,3.89,3.84,3.81,3.75,3180,13.25,60033.151,41.994686,980.782349,-208.327835,1.68904822424413,2.3660856613698,2.33237650412981,-7.938198,789.400085,168.543137,76.291229,1188.366089,-7.721122,"CRUZINT"
250,16,40,33.185,3496.18,0.671636,-0.133376,0.682567,-0.255379,-0.97028,0.16663,-0.03367,3493.12,-0.117954,-0.691677,0.086291,-0.707265,-0.94751,0.26915,-0.05259,2.08,2.77,2.92,3.14,2.97,2.99,2.88,3.8,3.22,3.92,4.02,3.89,3.85,3.81,3.76,3189,13.2875,60033.1885,40.945976,980.076355,-208.163315,1.6947206920734,2.36875128390447,2.32834582584861,-7.941016,789.556641,168.546158,76.864426,1188.114746,-8.489884,"CRUZINT"
251,16,40,33.189,3496.2,0.671893,-0.133124,0.682327,-0.255476,-0.9718,0.16579,-0.03732,3493.14,-0.118439,-0.693126,0.084193,-0.706017,-0.94958,0.25903,-0.04121,2.08,2.77,2.92,3.14,2.97,3,2.89,3.8,3.22,3.92,4.03,3.89,3.85,3.82,3.75,3190,13.291667,60033.192667,40.846588,980.004883,-208.153305,1.69523068088868,2.36900462960687,2.32796660349219,-7.932432,789.562134,168.545486,76.910156,1188.083496,-8.570662,"CRUZINT"
252,16,40,33.223,3496.22,0.672121,-0.132899,0.682096,-0.255609,-0.96817,0.16774,-0.03993,3493.16,-0.118803,-0.694534,0.081864,-0.704845,-0.95457,0.25682,-0.03896,2.08,2.77,2.92,3.14,2.97,3,2.89,3.81,3.22,3.92,4.02,3.88,3.86,3.82,3.75,3198,13.325,60033.226,39.978058,979.427368,-208.034729,1.69947833537242,2.37103754580997,2.32486525834022,-7.92605,789.668579,168.51622,77.251472,1187.83667,-9.185451,"CRUZINT"
253,16,40,33.228,3496.24,0.672341,-0.132677,0.681867,-0.255758,-0.96877,0.17219,-0.0388,3493.18,-0.119851,-0.695907,0.079412,-0.703593,-0.95027,0.25323,-0.03967,2.1,2.76,2.92,3.14,2.97,3.01,2.9,3.81,3.22,3.92,4.02,3.88,3.86,3.82,3.76,3199,13.329167,60033.230167,39.879108,979.348999,-208.019592,1.69998046938875,2.37135435857858,2.32441964807584,-7.932409,789.695984,168.514572,77.295845,1187.815063,-9.271658,"CRUZINT"
254,16,40,33.262,3496.26,0.672617,-0.132487,0.681527,-0.256038,-0.96486,0.17289,-0.04358,3493.2,-0.120142,-0.697176,0.077211,-0.702531,-0.9553,0.25828,-0.03301,2.1,2.76,2.92,3.14,2.97,3.01,2.91,3.82,3.21,3.93,4.02,3.88,3.86,3.82,3.76,3207,13.3625,60033.2635,39.182625,978.801758,-207.957825,1.70383680168799,2.37342222817836,2.32134636791578,-7.925921,789.800842,168.461288,77.695816,1187.609741,-9.933664,"CRUZINT"
255,16,40,33.267,3496.28,0.672849,-0.132376,0.681209,-0.256329,-0.96648,0.17048,-0.04041,3493.22,-0.120283,-0.698389,0.075427,-0.701495,-0.95963,0.25956,-0.03373,2.12,2.76,2.92,3.14,2.97,3.01,2.91,3.82,3.21,3.93,4.03,3.88,3.87,3.82,3.76,3208,13.366667,60033.267667,39.099247,978.745789,-207.95929,1.70429647050352,2.37362825102268,2.32101859070811,-7.922443,789.811646,168.451248,77.742661,1187.584229,-10.015258,"CRUZINT"
256,16,40,33.299,3496.3,0.673035,-0.132304,0.680912,-0.256666,-0.96774,0.16689,-0.03819,3493.24,-0.120456,-0.699493,0.073787,-0.70054,-0.96338,0.25882,-0.03423,2.13,2.75,2.92,3.13,2.98,3.01,2.92,3.83,3.2,3.93,4.03,3.88,3.87,3.82,3.76,3216,13.4,60033.301,38.552353,978.371094,-208.044815,1.70713758518115,2.37505155228972,2.31883309890775,-7.912654,789.917542,168.368668,78.010139,1187.480591,-10.580323,"CRUZINT"
257,16,40,33.304,3496.32,0.673195,-0.132343,0.680568,-0.257141,-0.96727,0.16607,-0.04,3493.26,-0.120459,-0.700472,0.072269,-0.699718,-0.9638,0.25366,-0.02853,2.13,2.75,2.92,3.13,2.98,3.01,2.92,3.83,3.2,3.93,4.03,3.89,3.88,3.82,3.76,3217,13.404167,60033.305167,38.496326,978.330139,-208.059967,1.70739429581824,2.37519935923382,2.31861558770709,-7.914967,789.934143,168.360184,78.028259,1187.471069,-10.640188,"CRUZINT"
258,16,40,33.34,3496.34,0.673314,-0.132382,0.680288,-0.257547,-0.96894,0.16638,-0.03721,3493.28,-0.121147,-0.701418,0.070878,-0.698794,-0.9504,0.24787,-0.02631,2.15,2.74,2.91,3.13,2.98,3,2.93,3.83,3.2,3.93,4.03,3.89,3.88,3.82,3.75,3226,13.441667,60033.342667,38.001495,977.993652,-208.192474,1.71022287414593,2.37651449164283,2.31652435500806,-7.87151,790.072327,168.241867,78.342323,1187.376099,-11.239952,"CRUZINT"
259,16,40,33.348,3496.36,0.673407,-0.132347,0.680084,-0.257862,-0.96994,0.16793,-0.03728,3493.3,-0.121208,-0.702385,0.069433,-0.697956,-0.96172,0.2386,-0.01315,2.16,2.74,2.91,3.13,2.99,3,2.93,3.84,3.2,3.93,4.03,3.89,3.88,3.82,3.76,3228,13.45,60033.351,37.884438,977.915955,-208.211044,1.71085858862663,2.3768195417825,2.31604265581955,-7.862556,790.102295,168.213303,78.407837,1187.358887,-11.362042,"CRUZINT"
260,16,40,33.378,3496.38,0.67351,-0.132279,0.679881,-0.258162,-0.96687,0.16724,-0.04032,3493.32,-0.121162,-0.703282,0.068248,-0.697178,-0.94357,0.24459,-0.00968,2.16,2.74,2.91,3.13,2.99,3,2.93,3.84,3.2,3.94,4.03,3.89,3.89,3.82,3.76,3235,13.479167,60033.380167,37.432884,977.615601,-208.263565,1.71316249886965,2.37786122151913,2.3143541612877,-7.824374,790.192505,168.113815,78.619476,1187.273315,-11.769851,"CRUZINT"
261,16,40,33.399,3496.4,0.673575,-0.132225,0.679715,-0.258458,-0.968,0.16968,-0.03966,3493.34,-0.121183,-0.70415,0.066511,-0.696465,-0.95124,0.24438,-0.01017,2.17,2.74,2.91,3.12,3,3,2.94,3.84,3.19,3.94,4.03,3.89,3.89,3.82,3.76,3240,13.5,60033.401,37.123631,977.39679,-208.264191,1.71467623664422,2.37862877594072,2.31315562982416,-7.804321,790.245361,168.045868,78.74295,1187.19751,-12.037018,"CRUZINT"
262,16,40,33.406,3496.42,0.67367,-0.132149,0.679525,-0.258749,-0.9702,0.16938,-0.03976,3493.36,-0.121289,-0.704896,0.06538,-0.695799,-0.9519,0.23839,-0.00914,2.17,2.74,2.9,3.12,3.01,3,2.95,3.84,3.19,3.94,4.03,3.89,3.89,3.82,3.76,3242,13.508333,60033.409333,36.990887,977.310242,-208.255157,1.7152718459334,2.37893210972007,2.31268145354116,-7.789797,790.265625,168.025177,78.781166,1187.171143,-12.13004,"CRUZINT"
263,16,40,33.444,3496.44,0.673776,-0.132057,0.679333,-0.259025,-0.97011,0.17024,-0.03732,3493.38,-0.121537,-0.705522,0.064385,-0.695213,-0.95121,0.24611,-0.00466,2.18,2.73,2.9,3.11,3.03,3,2.95,3.85,3.18,3.93,4.03,3.89,3.89,3.82,3.76,3251,13.545833,60033.446833,36.391117,976.89032,-208.190826,1.71813072212641,2.38034954779523,2.31043416518251,-7.7233,790.351013,167.988464,79.008255,1187.064087,-12.520231,"CRUZINT"
264,16,40,33.449,3496.46,0.673911,-0.131917,0.679174,-0.259162,-0.96927,0.17045,-0.04157,3493.4,-0.12183,-0.706013,0.063287,-0.694765,-0.95972,0.24322,-0.01034,2.19,2.73,2.9,3.1,3.03,3.01,2.95,3.85,3.18,3.93,4.04,3.89,3.89,3.82,3.76,3252,13.55,60033.451,36.337997,976.847717,-208.18959,1.71835701891829,2.38048197313419,2.3102352884775,-7.710373,790.360779,167.984741,79.021202,1187.053345,-12.556675,"CRUZINT"
265,16,40,33.483,3496.48,0.674077,-0.131738,0.678999,-0.259279,-0.96776,0.17078,-0.04391,3493.42,-0.122159,-0.706378,0.062386,-0.694417,-0.96535,0.23565,-0.01906,2.19,2.72,2.9,3.09,3.04,3,2.96,3.85,3.17,3.94,4.03,3.89,3.9,3.83,3.76,3260,13.583333,60033.484333,36.019062,976.497681,-208.157822,1.71965476780567,2.38179666630066,2.30853571935468,-7.641637,790.450012,168.045715,79.078445,1186.983765,-12.873605,"CRUZINT"
266,16,40,33.488,3496.5,0.674187,-0.131589,0.678859,-0.259436,-0.96601,0.17264,-0.04347,3493.44,-0.122258,-0.706501,0.061806,-0.694327,-0.96917,0.2307,-0.02114,2.2,2.71,2.9,3.08,3.04,3,2.96,3.85,3.16,3.93,4.03,3.9,3.9,3.82,3.76,3261,13.5875,60033.4885,35.985844,976.453674,-208.151535,1.71977950798832,2.38196959454411,2.30832545468354,-7.630718,790.456482,168.060562,79.082123,1186.979614,-12.907602,"CRUZINT"
267,16,40,33.519,3496.52,0.674348,-0.131419,0.678703,-0.259512,-0.96341,0.17494,-0.04307,3493.46,-0.121808,-0.706226,0.060887,-0.694767,-0.96094,0.2339,-0.01151,2.21,2.71,2.9,3.07,3.04,3.01,2.96,3.85,3.15,3.93,4.03,3.9,3.9,3.83,3.76,3269,13.620833,60033.521833,35.724442,976.09314,-208.097031,1.72049855206728,2.38327167090976,2.30680642891864,-7.557677,790.536255,168.172348,79.036827,1186.92627,-13.136263,"CRUZINT"
268,16,40,33.524,3496.54,0.674514,-0.131286,0.678541,-0.259571,-0.96661,0.177,-0.04381,3493.48,-0.121767,-0.706129,0.060696,-0.694889,-0.95082,0.23785,-0.00497,2.21,2.7,2.9,3.06,3.05,3.01,2.97,3.85,3.15,3.93,4.03,3.9,3.9,3.83,3.75,3270,13.625,60033.526,35.691105,976.047913,-208.094223,1.72056447844628,2.38340695443192,2.30665113615606,-7.542523,790.546509,168.178436,79.023354,1186.912598,-13.162686,"CRUZINT"
269,16,40,33.558,3496.56,0.674597,-0.131156,0.678427,-0.25972,-0.96838,0.17904,-0.04443,3493.5,-0.121747,-0.705916,0.060286,-0.695145,-0.95264,0.24008,-0.00373,2.22,2.69,2.89,3.04,3.06,3.01,2.97,3.85,3.15,3.93,4.03,3.9,3.9,3.83,3.75,3278,13.658333,60033.559333,35.418774,975.695435,-208.08316,1.72122821892291,2.38434729963464,2.30551023042121,-7.426948,790.593872,168.268524,78.948814,1186.782715,-13.36515,"CRUZINT"
270,16,40,33.58,3496.58,0.674794,-0.131035,0.678217,-0.259818,-0.96725,0.17953,-0.04747,3493.52,-0.121953,-0.70578,0.060269,-0.695248,-0.94829,0.24318,-0.00232,2.22,2.68,2.89,3.03,3.07,3.01,2.97,3.85,3.15,3.93,4.03,3.9,3.9,3.83,3.75,3283,13.679167,60033.580167,35.252411,975.501221,-208.099014,1.72189777291335,2.38473052912766,2.30492573411407,-7.363244,790.605347,168.309021,78.977043,1186.676147,-13.496694,"CRUZINT"
271,16,40,33.588,3496.6,0.674835,-0.130929,0.678112,-0.260037,-0.96479,0.17834,-0.05035,3493.54,-0.122251,-0.705735,0.060391,-0.695231,-0.95047,0.24498,-0.00033,2.22,2.67,2.88,3,3.07,3.01,2.98,3.86,3.14,3.93,4.03,3.9,3.91,3.83,3.75,3285,13.6875,60033.5885,35.19017,975.440308,-208.111221,1.72220315787181,2.38479880503475,2.30476574779012,-7.336398,790.598938,168.31424,79.002052,1186.626709,-13.545379,"CRUZINT"
272,16,40,33.623,3496.62,0.674896,-0.13093,0.677973,-0.260242,-0.96706,0.1751,-0.04867,3493.56,-0.122615,-0.705784,0.060301,-0.695124,-0.96027,0.24329,-0.00368,2.22,2.66,2.88,2.99,3.08,3.02,2.98,3.86,3.14,3.93,4.03,3.9,3.9,3.83,3.75,3294,13.725,60033.626,34.940918,975.249695,-208.220886,1.72364245171307,2.38470620406667,2.30442520172163,-7.248348,790.565247,168.336624,79.168549,1186.429565,-13.71751,"CRUZINT"
273,16,40,33.628,3496.64,0.674927,-0.131009,0.677844,-0.260457,-0.96828,0.17437,-0.04142,3493.58,-0.123038,-0.705865,0.060353,-0.694963,-0.96896,0.24128,-0.01008,2.23,2.66,2.88,2.98,3.09,3.02,2.98,3.86,3.14,3.93,4.03,3.9,3.9,3.83,3.75,3295,13.729167,60033.630167,34.92881,975.238403,-208.241013,1.72376222932832,2.38467493651627,2.30442033125802,-7.241563,790.563354,168.338074,79.190819,1186.411987,-13.738733,"CRUZINT"
274,16,40,33.665,3496.66,0.674924,-0.131058,0.677787,-0.260589,-0.96655,0.17283,-0.04407,3493.6,-0.122966,-0.705789,0.060086,-0.695076,-0.96844,0.23832,-0.01739,2.24,2.65,2.87,2.96,3.1,3.02,2.98,3.86,3.14,3.93,4.03,3.9,3.91,3.83,3.75,3304,13.766667,60033.667667,34.930462,975.175354,-208.401352,1.72453320763223,2.38440290423969,2.30445936407623,-7.199661,790.589172,168.330826,79.417099,1186.310303,-13.876244,"CRUZINT"
275,16,40,33.67,3496.68,0.674967,-0.131072,0.677703,-0.260688,-0.96289,0.17191,-0.04377,3493.62,-0.123011,-0.705998,0.060303,-0.694837,-0.96294,0.2387,-0.01637,2.25,2.64,2.87,2.96,3.1,3.02,2.98,3.86,3.14,3.92,4.03,3.9,3.91,3.83,3.75,3305,13.770833,60033.671833,34.937756,975.171875,-208.415894,1.72461981882195,2.38436030619945,2.30447576193154,-7.194992,790.589966,168.32724,79.449364,1186.298828,-13.886783,"CRUZINT"
276,16,40,33.699,3496.7,0.675012,-0.131207,0.677764,-0.260347,-0.96245,0.16917,-0.0449,3493.64,-0.123072,-0.706234,0.060497,-0.69457,-0.95998,0.23915,-0.01114,2.25,2.63,2.87,2.95,3.1,3.02,2.99,3.86,3.14,3.93,4.03,3.89,3.91,3.83,3.75,3312,13.8,60033.701,35.038128,975.147949,-208.532394,1.72501877610863,2.38428304657224,2.30443170093836,-7.163354,790.62677,168.255325,79.665977,1186.267578,-14.005332,"CRUZINT"
277,16,40,33.707,3496.72,0.675065,-0.131163,0.677723,-0.260335,-0.9643,0.16882,-0.05054,3493.66,-0.122829,-0.706284,0.060209,-0.694587,-0.96219,0.23676,-0.0112,2.25,2.63,2.86,2.95,3.11,3.03,2.99,3.86,3.14,3.92,4.03,3.9,3.91,3.83,3.75,3314,13.808333,60033.709333,35.077629,975.139587,-208.554199,1.72505354960482,2.3842933850937,2.30441070869841,-7.160259,790.635742,168.229523,79.715218,1186.260132,-14.032724,"CRUZINT"
278,16,40,33.74,3496.74,0.675133,-0.131135,0.677661,-0.260336,-0.96716,0.17193,-0.0504,3493.68,-0.122686,-0.706465,0.060331,-0.694418,-0.96364,0.23335,-0.01313,2.27,2.62,2.85,2.95,3.11,3.03,2.99,3.86,3.14,3.92,4.02,3.89,3.91,3.83,3.75,3322,13.841667,60033.742667,35.321842,975.098999,-208.649948,1.72490007657219,2.38443242607813,2.30431796913915,-7.143676,790.66626,168.141708,79.91909,1186.264893,-14.132272,"CRUZINT"
279,16,40,33.745,3496.76,0.67513,-0.131249,0.677741,-0.260078,-0.97081,0.17144,-0.04886,3493.7,-0.122266,-0.706482,0.060173,-0.694487,-0.96066,0.2372,-0.00905,2.28,2.62,2.84,2.95,3.12,3.03,2.99,3.86,3.14,3.92,4.03,3.89,3.91,3.83,3.75,3323,13.845833,60033.746833,35.353813,975.093994,-208.664719,1.7248517456851,2.38444837265498,2.30431670017826,-7.142299,790.664368,168.126587,79.93708,1186.262573,-14.147775,"CRUZINT"
280,16,40,33.779,3496.78,0.675197,-0.131218,0.677679,-0.260082,-0.97138,0.17053,-0.04827,3493.72,-0.122014,-0.706578,0.060228,-0.69443,-0.95267,0.24343,-0.0031,2.28,2.61,2.84,2.95,3.12,3.03,2.99,3.86,3.14,3.92,4.02,3.9,3.91,3.83,3.75,3331,13.879167,60033.780167,35.572052,975.055176,-208.807922,1.72469831093212,2.38456087436414,2.30425053048577,-7.120609,790.666382,168.042343,80.114899,1186.263428,-14.289397,"CRUZINT"
281,16,40,33.787,3496.8,0.67519,-0.131325,0.677798,-0.259736,-0.97009,0.16776,-0.04632,3493.74,-0.121818,-0.706668,0.06031,-0.694365,-0.95115,0.24475,0.0042,2.29,2.61,2.82,2.95,3.12,3.03,2.99,3.86,3.13,3.93,4.03,3.9,3.91,3.83,3.75,3333,13.8875,60033.7885,35.618866,975.039063,-208.846542,1.7246516010062,2.38456442693062,2.30426119056334,-7.119923,790.673828,168.021317,80.149155,1186.252075,-14.321985,"CRUZINT"
282,16,40,33.843,3496.82,0.675243,-0.131232,0.677776,-0.259702,-0.96978,0.16868,-0.04783,3493.76,-0.121537,-0.706913,0.060028,-0.69419,-0.95156,0.23943,0.00572,2.29,2.61,2.82,2.95,3.12,3.03,2.99,3.87,3.14,3.92,4.02,3.9,3.91,3.83,3.75,3347,13.945833,60033.846833,35.71133,974.839722,-209.031281,1.72511276622287,2.38494372669613,2.30373979190302,-7.087072,790.686401,167.923157,80.380203,1186.157593,-14.592446,"CRUZINT"
283,16,40,33.848,3496.84,0.675304,-0.13113,0.677767,-0.25962,-0.96518,0.17174,-0.04738,3493.78,-0.121328,-0.707031,0.060155,-0.694095,-0.95278,0.23424,0.00856,2.29,2.61,2.81,2.96,3.12,3.03,2.99,3.87,3.14,3.92,4.03,3.9,3.91,3.83,3.75,3348,13.95,60033.851,35.707214,974.824524,-209.037918,1.72512158522471,2.38496179414118,2.30371896085896,-7.086367,790.682434,167.922104,80.378464,1186.145264,-14.604259,"CRUZINT"
284,16,40,33.853,3496.86,0.675257,-0.13104,0.677858,-0.259549,-0.96523,0.17362,-0.04747,3493.8,-0.121016,-0.707223,0.059816,-0.693983,-0.95476,0.23793,0.00807,2.29,2.61,2.8,2.95,3.12,3.03,2.99,3.87,3.14,3.92,4.03,3.9,3.91,3.83,3.75,3349,13.954167,60033.855167,35.701447,974.809204,-209.042877,1.72522786171096,2.38502173847692,2.3036263105177,-7.081401,790.683777,167.919983,80.403358,1186.142578,-14.628609,"CRUZINT"
285,16,40,33.879,3496.88,0.675307,-0.130912,0.677855,-0.25949,-0.96521,0.17453,-0.04827,3493.82,-0.120811,-0.70745,0.059799,-0.693789,-0.95597,0.23657,0.00481,2.29,2.61,2.8,2.95,3.13,3.03,2.99,3.87,3.14,3.92,4.03,3.9,3.91,3.83,3.75,3355,13.979167,60033.880167,35.638737,974.68457,-209.053101,1.72574352270113,2.38534384080148,2.30314506599415,-7.072196,790.681641,167.881607,80.49073,1186.091675,-14.734089,"CRUZINT"
286,16,40,33.884,3496.9,0.675357,-0.130746,0.677838,-0.259488,-0.96727,0.17412,-0.05001,3493.84,-0.120672,-0.70772,0.059604,-0.693555,-0.95857,0.23274,0.00335,2.3,2.6,2.8,2.95,3.13,3.03,2.99,3.87,3.14,3.93,4.03,3.9,3.91,3.83,3.75,3356,13.983333,60033.884333,35.623474,974.666626,-209.050339,1.72580948184011,2.38540380868775,2.30306462827857,-7.079037,790.685486,167.879547,80.494278,1186.085083,-14.749269,"CRUZINT"
287,16,40,33.919,3496.92,0.675394,-0.130631,0.677832,-0.259463,-0.96817,0.17358,-0.04836,3493.86,-0.120333,-0.707999,0.058855,-0.693393,-0.95956,0.22452,-0.00208,2.3,2.6,2.8,2.95,3.13,3.03,2.99,3.87,3.13,3.93,4.03,3.9,3.91,3.83,3.75,3365,14.020833,60033.921833,35.58112,974.434875,-208.910995,1.72634936725618,2.38631708487133,2.30198173847099,-7.060107,790.695313,167.83667,80.609001,1186.045044,-14.835204,"CRUZINT"
288,16,40,33.924,3496.94,0.675429,-0.130537,0.677819,-0.259455,-0.96776,0.17603,-0.04593,3493.88,-0.120005,-0.708267,0.058475,-0.693208,-0.963,0.21927,-0.00736,2.3,2.6,2.79,2.95,3.13,3.03,2.99,3.87,3.13,3.92,4.03,3.9,3.91,3.83,3.75,3366,14.025,60033.926,35.586586,974.407227,-208.888062,1.72636076941882,2.38642994445459,2.30186490639441,-7.058643,790.695313,167.833618,80.617645,1186.039429,-14.837962,"CRUZINT"
