Sample,Hour,Minute,Sec,Stamp,Quat1,Quat2,Quat3,Quat4,AccX,AccY,AccZ,Stamp2,Quat2_1,Quat2_2,Quat2_3,Quat2_4,Acc2_X,Acc2_Y,Acc2_Z,A0,A1,A2,A3,A4,A5,A6,A7,A8,A9,A10,A11,A12,A13,A14,Frame,Time,realTime,BrazoX,BrazoY,BrazoZ,angBrazoX,angBrazoY,angBrazoZ,EspaldaX,EspaldaY,EspaldaZ,refX,refY,refZ,type
2,16,38,10.815,3353.72,0.661313,-0.149285,0.683417,-0.270779,-0.97067,0.17064,-0.03029,3350.64,-0.257664,-0.673793,0.0835,-0.687488,-0.86565,0.45667,-0.08871,2.35,2.56,2.66,2.97,3.12,3.06,2.98,3.87,3.17,3.95,4,4,4,4,4,2185,9.104167,59890.816167,86.790886,1008.660217,-226.726151,1.69010868376176,2.2776354583441,2.42043931429809,22.484835,799.591125,150.656815,121.063049,1195.651611,-10.477812,"CRUZINT"
3,16,38,10.829,3353.74,0.66126,-0.149309,0.683476,-0.270745,-0.97051,0.16879,-0.02904,3350.66,-0.257581,-0.67377,0.083528,-0.687538,-0.86897,0.45787,-0.08908,2.35,2.56,2.66,2.97,3.12,3.06,2.98,3.87,3.17,3.95,4.07,3.95,3.9,3.83,3.71,2189,9.120833,59890.832833,86.79612,1008.639221,-226.728577,1.69015954733254,2.27770206434012,2.42036085711016,22.499557,799.579224,150.660995,121.082657,1195.644287,-10.496207,"CRUZINT"
4,16,38,10.839,3353.76,0.661268,-0.149378,0.68347,-0.270703,-0.96741,0.16865,-0.02912,3350.68,-0.257433,-0.673846,0.083631,-0.687507,-0.86816,0.4604,-0.09378,2.35,2.56,2.66,2.97,3.12,3.06,2.98,3.87,3.17,3.95,4.07,3.95,3.9,3.84,3.71,2191,9.129167,59890.841167,86.800835,1008.635742,-226.730103,1.6902019659625,2.27772785893335,2.42032505305391,22.502777,799.578247,150.654144,121.098877,1195.643066,-10.508459,"CRUZINT"
5,16,38,10.847,3353.78,0.661213,-0.14939,0.683545,-0.270642,-0.9687,0.16935,-0.03081,3350.7,-0.25729,-0.673792,0.083807,-0.687592,-0.8667,0.45954,-0.096,2.35,2.57,2.66,2.97,3.12,3.06,2.98,3.87,3.17,3.95,4.07,3.95,3.9,3.83,3.71,2193,9.1375,59890.8495,86.824776,1008.632446,-226.746979,1.69016072522415,2.27773752268516,2.42032526352574,22.512295,799.579102,150.653976,121.111603,1195.64502,-10.521671,"CRUZINT"
6,16,38,10.856,3353.8,0.661257,-0.149335,0.683506,-0.270663,-0.9677,0.17119,-0.0302,3350.72,-0.257262,-0.673787,0.083974,-0.687587,-0.86816,0.45778,-0.09021,2.35,2.56,2.66,2.97,3.12,3.06,2.98,3.87,3.17,3.95,4.07,3.95,3.9,3.84,3.71,2195,9.145833,59890.857833,86.842171,1008.627441,-226.75502,1.6901503433589,2.27774541919272,2.42031987463173,22.52033,799.586792,150.643997,121.126541,1195.644531,-10.527514,"CRUZINT"
7,16,38,10.866,3353.82,0.661227,-0.149322,0.683561,-0.270604,-0.96992,0.17004,-0.02822,3350.74,-0.257243,-0.673791,0.084148,-0.687568,-0.86982,0.45227,-0.08618,2.35,2.56,2.67,2.97,3.12,3.06,2.98,3.87,3.17,3.95,4.07,3.95,3.9,3.83,3.71,2197,9.154167,59890.866167,86.867851,1008.631836,-226.767578,1.69013696272008,2.27773510690072,2.42033333444964,22.528553,799.594971,150.639572,121.147713,1195.642944,-10.541819,"CRUZINT"
8,16,38,10.871,3353.84,0.661197,-0.149323,0.683601,-0.270575,-0.96955,0.16959,-0.02956,3350.76,-0.257222,-0.673813,0.084021,-0.687571,-0.86865,0.45398,-0.08184,2.35,2.56,2.66,2.97,3.12,3.06,2.98,3.87,3.17,3.95,4.06,3.95,3.9,3.83,3.71,2199,9.1625,59890.8745,86.900543,1008.636597,-226.778275,1.69005500757678,2.27770715745296,2.42038069925578,22.538984,799.606995,150.638901,121.157135,1195.642456,-10.542505,"CRUZINT"
9,16,38,10.876,3353.86,0.661169,-0.149282,0.683639,-0.270572,-0.97173,0.16966,-0.02673,3350.78,-0.257239,-0.67379,0.083993,-0.687591,-0.86544,0.46153,-0.084,2.35,2.57,2.66,2.97,3.12,3.06,2.98,3.87,3.17,3.95,4.07,3.95,3.9,3.83,3.71,2200,9.166667,59890.878667,86.91153,1008.637329,-226.776871,1.69005139592757,2.27772101026084,2.4203677636065,22.5448,799.608093,150.636841,121.166847,1195.644897,-10.545091,"CRUZINT"
10,16,38,10.884,3353.88,0.66112,-0.1493,0.683688,-0.270556,-0.97096,0.16931,-0.02893,3350.8,-0.257218,-0.67358,0.083951,-0.687809,-0.86787,0.4601,-0.09117,2.35,2.57,2.66,2.97,3.12,3.06,2.98,3.87,3.17,3.95,4.07,3.95,3.9,3.84,3.71,2202,9.175,59890.887,86.947586,1008.631226,-226.789871,1.68999634770704,2.27773477311116,2.42036716746531,22.555431,799.621948,150.627502,121.188782,1195.650635,-10.547997,"CRUZINT"
11,16,38,10.89,3353.9,0.661152,-0.149242,0.683644,-0.270622,-0.96701,0.17203,-0.02788,3350.82,-0.257209,-0.673601,0.083996,-0.687786,-0.87062,0.45621,-0.09262,2.35,2.57,2.66,2.97,3.12,3.06,2.98,3.87,3.17,3.95,4.07,3.95,3.9,3.83,3.71,2203,9.179167,59890.891167,86.963211,1008.628479,-226.794876,1.68997323133865,2.27773610220086,2.42037134745792,22.554211,799.62616,150.622162,121.197823,1195.648315,-10.55205,"CRUZINT"
12,16,38,10.903,3353.92,0.661131,-0.149254,0.683668,-0.270607,-0.96556,0.17086,-0.0286,3350.84,-0.257063,-0.673667,0.084104,-0.687763,-0.86925,0.45468,-0.08716,2.35,2.57,2.66,2.97,3.12,3.06,2.98,3.87,3.17,3.95,4.07,3.95,3.9,3.83,3.71,2206,9.191667,59890.903667,86.996857,1008.610718,-226.795013,1.68990905043201,2.27784265089757,2.42028050920403,22.565289,799.644775,150.61203,121.213196,1195.654297,-10.568977,"CRUZINT"
13,16,38,10.922,3353.94,0.661121,-0.149244,0.68369,-0.270581,-0.97021,0.17003,-0.0279,3350.86,-0.256808,-0.673722,0.084151,-0.687798,-0.86919,0.45267,-0.08592,2.35,2.57,2.66,2.97,3.12,3.06,2.98,3.87,3.17,3.95,4.07,3.95,3.9,3.83,3.71,2211,9.2125,59890.9245,87.034622,1008.576843,-226.793793,1.68987341914543,2.27802837970812,2.42010401394335,22.597179,799.658447,150.590332,121.241409,1195.664551,-10.597307,"CRUZINT"
14,16,38,10.928,3353.96,0.661192,-0.149205,0.683627,-0.270586,-0.97341,0.17147,-0.02839,3350.88,-0.256632,-0.673722,0.084166,-0.687862,-0.86827,0.45728,-0.08677,2.35,2.57,2.66,2.97,3.12,3.06,2.98,3.87,3.17,3.95,4.07,3.95,3.9,3.84,3.71,2212,9.216667,59890.928667,87.039642,1008.570068,-226.791061,1.68984450406797,2.27805169143347,2.42008767367818,22.593235,799.668884,150.589493,121.237999,1195.661987,-10.598713,"CRUZINT"
15,16,38,10.977,3353.98,0.661205,-0.149167,0.683648,-0.270521,-0.97232,0.17179,-0.02809,3350.9,-0.25663,-0.673675,0.084016,-0.687928,-0.86598,0.45778,-0.08344,2.35,2.57,2.66,2.97,3.12,3.06,2.98,3.87,3.17,3.95,4.07,3.95,3.9,3.83,3.71,2224,9.266667,59890.978667,87.098503,1008.478638,-226.761429,1.68986266188433,2.27839292169593,2.41974351015706,22.634016,799.681702,150.591278,121.300629,1195.637451,-10.643539,"CRUZINT"
16,16,38,10.982,3354,0.661255,-0.149069,0.683632,-0.270496,-0.96955,0.16973,-0.02856,3350.92,-0.256674,-0.673661,0.083882,-0.687942,-0.8664,0.4578,-0.08268,2.35,2.57,2.66,2.97,3.12,3.06,2.98,3.87,3.17,3.95,4.07,3.95,3.9,3.83,3.71,2225,9.270833,59890.982833,87.112709,1008.473999,-226.760361,1.68983053474666,2.27840716505277,2.41973696346911,22.634399,799.678284,150.588699,121.304657,1195.630493,-10.649993,"CRUZINT"
17,16,38,11.002,3354.02,0.661249,-0.149046,0.683672,-0.270422,-0.96756,0.17149,-0.02961,3350.94,-0.256604,-0.673724,0.083895,-0.687904,-0.86722,0.45326,-0.08259,2.35,2.57,2.66,2.97,3.12,3.06,2.98,3.87,3.17,3.95,4.06,3.95,3.9,3.83,3.71,2230,9.291667,59891.003667,87.142746,1008.444885,-226.765793,1.68984188469269,2.27846363844075,2.41967801999335,22.633982,799.681946,150.593948,121.339417,1195.621826,-10.657298,"CRUZINT"
18,16,38,11.007,3354.04,0.661243,-0.149027,0.68371,-0.270352,-0.96779,0.17086,-0.02961,3350.96,-0.256392,-0.673819,0.083902,-0.687889,-0.87055,0.45152,-0.08503,2.35,2.57,2.66,2.97,3.12,3.06,2.98,3.87,3.17,3.95,4.07,3.95,3.9,3.84,3.71,2231,9.295833,59891.007833,87.145012,1008.431885,-226.764343,1.68983697130002,2.27847605573492,2.41966682108687,22.636974,799.674011,150.598862,121.340752,1195.614136,-10.654985,"CRUZINT"
19,16,38,11.041,3354.06,0.661285,-0.148962,0.683691,-0.270332,-0.96671,0.17153,-0.03148,3350.98,-0.25621,-0.673896,0.083992,-0.687871,-0.87184,0.45518,-0.08698,2.35,2.57,2.66,2.97,3.12,3.06,2.98,3.87,3.17,3.95,4.07,3.95,3.9,3.84,3.71,2239,9.329167,59891.041167,87.143555,1008.374817,-226.717453,1.68985019115079,2.27870594886478,2.41943471257148,22.608742,799.673706,150.629486,121.342461,1195.604004,-10.656143,"CRUZINT"
20,16,38,11.046,3354.08,0.661261,-0.14897,0.683729,-0.27029,-0.96697,0.17045,-0.03226,3351,-0.256157,-0.673881,0.083968,-0.687908,-0.87195,0.45958,-0.08562,2.35,2.57,2.66,2.97,3.12,3.06,2.98,3.87,3.17,3.95,4.07,3.95,3.9,3.84,3.71,2241,9.3375,59891.0495,87.131859,1008.364563,-226.704285,1.68988168579652,2.27870684261042,2.41942633318931,22.608025,799.668396,150.626678,121.339912,1195.594727,-10.643668,"CRUZINT"
21,16,38,11.083,3354.1,0.661437,-0.148888,0.683527,-0.270414,-0.96708,0.17039,-0.03355,3351.02,-0.256216,-0.67388,0.083871,-0.687899,-0.86923,0.45994,-0.08173,2.35,2.57,2.66,2.97,3.12,3.06,2.98,3.87,3.17,3.95,4.06,3.95,3.9,3.84,3.71,2250,9.375,59891.087,87.07872,1008.320435,-226.631332,1.69005376829355,2.27888273422115,2.41921019725277,22.584879,799.655457,150.638855,121.335129,1195.584473,-10.617163,"CRUZINT"
22,16,38,11.088,3354.12,0.661406,-0.148929,0.683546,-0.27042,-0.96917,0.17015,-0.03109,3351.04,-0.256301,-0.673914,0.083786,-0.687844,-0.86923,0.45342,-0.08308,2.35,2.57,2.66,2.97,3.12,3.06,2.98,3.87,3.17,3.95,4.07,3.94,3.9,3.84,3.71,2251,9.379167,59891.091167,87.074356,1008.307312,-226.625092,1.69005103317516,2.27891002838621,2.41918366443982,22.581486,799.651062,150.637085,121.330711,1195.581299,-10.611384,"CRUZINT"
23,16,38,11.12,3354.14,0.661393,-0.148929,0.683576,-0.270377,-0.96922,0.16961,-0.03174,3351.06,-0.256272,-0.673903,0.083531,-0.687896,-0.86942,0.45326,-0.08405,2.35,2.57,2.67,2.97,3.12,3.06,2.98,3.87,3.17,3.95,4.07,3.95,3.9,3.83,3.71,2258,9.408333,59891.120333,87.02459,1008.279907,-226.59343,1.69023249608908,2.27895716002865,2.41909347724147,22.576178,799.624329,150.651535,121.331818,1195.558716,-10.60322,"CRUZINT"
24,16,38,11.139,3354.16,0.661452,-0.148909,0.68355,-0.27031,-0.96842,0.16942,-0.03041,3351.08,-0.256129,-0.673996,0.083579,-0.687853,-0.86541,0.45785,-0.08316,2.35,2.57,2.67,2.97,3.12,3.06,2.98,3.87,3.17,3.95,4.06,3.95,3.9,3.84,3.71,2263,9.429167,59891.141167,86.981667,1008.252258,-226.587158,1.69032871441076,2.27896750533305,2.41906021748662,22.577808,799.601746,150.652344,121.31649,1195.533813,-10.602723,"CRUZINT"
25,16,38,11.144,3354.18,0.661417,-0.148913,0.683607,-0.270248,-0.96765,0.16973,-0.02818,3351.1,-0.25604,-0.674025,0.083607,-0.687855,-0.86597,0.45677,-0.08468,2.35,2.57,2.67,2.97,3.12,3.06,2.98,3.87,3.17,3.95,4.07,3.95,3.9,3.83,3.71,2264,9.433333,59891.145333,86.975258,1008.23938,-226.583023,1.69032235079699,2.27901575381691,2.41901368277313,22.58392,799.597778,150.650803,121.308487,1195.532715,-10.606032,"CRUZINT"
26,16,38,11.181,3354.2,0.661457,-0.148868,0.683568,-0.270274,-0.96767,0.16985,-0.02898,3351.12,-0.256063,-0.674082,0.083618,-0.687789,-0.87048,0.45612,-0.08793,2.35,2.57,2.67,2.97,3.12,3.06,2.98,3.87,3.17,3.95,4.07,3.95,3.9,3.84,3.71,2273,9.470833,59891.182833,86.87236,1008.159729,-226.511963,1.69061193595753,2.27918228373525,2.41877863282089,22.581354,799.587769,150.676773,121.287323,1195.483765,-10.586322,"CRUZINT"
27,16,38,11.186,3354.22,0.661404,-0.148873,0.68364,-0.270218,-0.96774,0.17051,-0.0283,3351.14,-0.256163,-0.674085,0.08353,-0.687759,-0.87132,0.45532,-0.08486,2.35,2.57,2.67,2.98,3.12,3.06,2.98,3.88,3.17,3.95,4.07,3.95,3.9,3.84,3.71,2274,9.475,59891.187,86.86171,1008.149292,-226.498138,1.69063919728298,2.27921226604047,2.41874224980226,22.588482,799.582703,150.676926,121.284035,1195.477539,-10.582129,"CRUZINT"
28,16,38,11.234,3354.24,0.661377,-0.148826,0.683715,-0.270121,-0.96852,0.17065,-0.02687,3351.16,-0.256232,-0.674033,0.083387,-0.687802,-0.87148,0.45673,-0.08426,2.35,2.57,2.67,2.97,3.12,3.06,2.98,3.87,3.17,3.95,4.07,3.95,3.9,3.83,3.71,2286,9.525,59891.237,86.672844,1008.080383,-226.398605,1.69107828178521,2.2793593862887,2.41849048229309,22.584803,799.576904,150.694565,121.220139,1195.437866,-10.53393,"CRUZINT"
29,16,38,11.239,3354.26,0.661383,-0.148807,0.683731,-0.270076,-0.97025,0.16942,-0.02972,3351.18,-0.256353,-0.674051,0.083283,-0.687752,-0.87055,0.45813,-0.08573,2.35,2.57,2.67,2.97,3.12,3.06,2.98,3.88,3.17,3.95,4.07,3.95,3.9,3.83,3.71,2287,9.529167,59891.241167,86.660156,1008.074158,-226.39502,1.69110327321826,2.27938935106589,2.41845463797173,22.588251,799.570313,150.69165,121.214737,1195.438965,-10.536283,"CRUZINT"
30,16,38,11.26,3354.28,0.661343,-0.148845,0.683764,-0.270069,-0.96962,0.17217,-0.03127,3351.2,-0.256463,-0.674021,0.083092,-0.687763,-0.86904,0.45653,-0.08595,2.35,2.57,2.67,2.97,3.12,3.06,2.98,3.87,3.17,3.95,4.07,3.95,3.9,3.83,3.71,2292,9.55,59891.262,86.607933,1008.060242,-226.370102,1.69123625337848,2.27940214584955,2.41840994180474,22.604261,799.560791,150.687027,121.200661,1195.428589,-10.519025,"CRUZINT"
31,16,38,11.265,3354.3,0.661306,-0.148941,0.683795,-0.27003,-0.96845,0.17086,-0.02823,3351.22,-0.256543,-0.674078,0.083025,-0.687686,-0.86816,0.45515,-0.08486,2.35,2.57,2.67,2.98,3.12,3.06,2.98,3.88,3.17,3.95,4.06,3.95,3.9,3.84,3.71,2293,9.554167,59891.266167,86.596329,1008.057861,-226.368591,1.69126772670447,2.27938891896375,2.41841554716304,22.602007,799.558289,150.691864,121.198418,1195.425293,-10.514169,"CRUZINT"
32,16,38,11.3,3354.32,0.66128,-0.14896,0.683842,-0.269963,-0.96819,0.16835,-0.0294,3351.24,-0.256575,-0.674141,0.082983,-0.687617,-0.86952,0.45585,-0.08618,2.35,2.57,2.67,2.97,3.12,3.06,2.98,3.87,3.17,3.95,4.07,3.95,3.9,3.84,3.71,2302,9.591667,59891.303667,86.492722,1008.034363,-226.32579,1.69146269593019,2.27940580455291,2.41835180783182,22.604509,799.552368,150.718689,121.148964,1195.396973,-10.49332,"CRUZINT"
33,16,38,11.32,3354.34,0.661251,-0.14897,0.6839,-0.269883,-0.96809,0.16966,-0.02862,3351.26,-0.256526,-0.673949,0.082879,-0.687836,-0.87061,0.456,-0.08953,2.35,2.57,2.67,2.97,3.12,3.06,2.98,3.87,3.17,3.95,4.07,3.95,3.9,3.84,3.71,2306,9.608333,59891.320333,86.465012,1008.021851,-226.309662,1.69144646601966,2.27945988161201,2.4183018603057,22.596296,799.544739,150.731308,121.116585,1195.396118,-10.486898,"CRUZINT"
34,16,38,11.325,3354.36,0.661269,-0.148924,0.683892,-0.269882,-0.96786,0.17062,-0.02865,3351.28,-0.256523,-0.673978,0.082909,-0.687804,-0.87057,0.4553,-0.08937,2.35,2.57,2.67,2.97,3.12,3.06,2.98,3.87,3.17,3.95,4.07,3.95,3.9,3.83,3.71,2308,9.616667,59891.328667,86.44519,1008.015869,-226.302231,1.69145834087069,2.27944725555799,2.41831157498234,22.591837,799.545532,150.736801,121.099945,1195.38623,-10.478936,"CRUZINT"
35,16,38,11.36,3354.38,0.66125,-0.14893,0.683931,-0.269827,-0.9698,0.17146,-0.02972,3351.3,-0.256574,-0.673904,0.08277,-0.687876,-0.86789,0.4567,-0.08695,2.35,2.57,2.67,2.97,3.12,3.06,2.98,3.87,3.17,3.95,4.07,3.95,3.9,3.83,3.71,2316,9.65,59891.362,86.375603,1007.992981,-226.270111,1.6914868703389,2.27948699489835,2.41826512589498,22.577143,799.518555,150.737091,121.038994,1195.374634,-10.452666,"CRUZINT"
36,16,38,11.366,3354.4,0.661274,-0.148943,0.683916,-0.2698,-0.96882,0.16987,-0.02902,3351.32,-0.256629,-0.673909,0.082756,-0.687852,-0.87036,0.45527,-0.08341,2.35,2.57,2.67,2.97,3.12,3.06,2.98,3.87,3.17,3.95,4.07,3.95,3.9,3.84,3.71,2317,9.654167,59891.366167,86.367416,1007.986877,-226.264847,1.69146976698375,2.2794973224596,2.41825896034034,22.572025,799.515259,150.74263,121.026314,1195.372925,-10.446115,"CRUZINT"
37,16,38,11.4,3354.42,0.661239,-0.148963,0.683958,-0.269767,-0.96983,0.16929,-0.03099,3351.34,-0.256629,-0.673931,0.082763,-0.687829,-0.87038,0.45651,-0.08566,2.35,2.57,2.67,2.97,3.12,3.06,2.98,3.87,3.17,3.95,4.07,3.95,3.9,3.84,3.71,2326,9.691667,59891.403667,86.293678,1007.991821,-226.250519,1.69151293658429,2.27941922012712,2.41832634388714,22.558151,799.479919,150.755783,120.963364,1195.352417,-10.428599,"CRUZINT"
38,16,38,11.404,3354.44,0.661174,-0.148989,0.684026,-0.269741,-0.96872,0.16764,-0.02949,3351.36,-0.256564,-0.673883,0.082675,-0.68791,-0.86989,0.45626,-0.08834,2.35,2.57,2.67,2.97,3.12,3.06,2.98,3.87,3.17,3.95,4.07,3.95,3.9,3.84,3.71,2327,9.695833,59891.407833,86.289261,1007.979736,-226.242783,1.69151080310753,2.27947325256155,2.4182730462201,22.554483,799.475952,150.755768,120.958885,1195.355103,-10.427609,"CRUZINT"
39,16,38,11.44,3354.46,0.661245,-0.14896,0.683961,-0.269747,-0.96908,0.16827,-0.02989,3351.38,-0.256507,-0.67392,0.082772,-0.687884,-0.87055,0.45729,-0.09161,2.35,2.57,2.67,2.97,3.12,3.06,2.98,3.87,3.16,3.95,4.07,3.95,3.9,3.84,3.71,2335,9.729167,59891.441167,86.276405,1007.979614,-226.23056,1.69139009125618,2.27941965409744,2.4183554969129,22.512682,799.446594,150.76857,120.911934,1195.345459,-10.397148,"CRUZINT"
40,16,38,11.446,3354.48,0.661204,-0.148955,0.684022,-0.269694,-0.96903,0.16933,-0.02958,3351.4,-0.256452,-0.673777,0.082773,-0.688045,-0.86794,0.45381,-0.08768,2.35,2.57,2.67,2.97,3.12,3.06,2.98,3.87,3.17,3.95,4.07,3.95,3.9,3.84,3.71,2337,9.7375,59891.4495,86.26516,1007.975098,-226.227798,1.69137436596109,2.27939569064908,2.4183831476734,22.502161,799.435791,150.772141,120.895538,1195.332153,-10.393209,"CRUZINT"
41,16,38,11.482,3354.5,0.661255,-0.148927,0.683979,-0.269695,-0.96922,0.16985,-0.02926,3351.42,-0.256484,-0.673755,0.082803,-0.688051,-0.86747,0.453,-0.08562,2.35,2.57,2.67,2.97,3.12,3.06,2.98,3.87,3.17,3.95,4.07,3.95,3.89,3.84,3.71,2345,9.770833,59891.482833,86.255859,1007.936462,-226.208389,1.69139003524766,2.27940953533581,2.4183655878785,22.453539,799.415283,150.772446,120.89019,1195.293701,-10.38042,"CRUZINT"
42,16,38,11.487,3354.52,0.661211,-0.148919,0.684047,-0.269636,-0.96936,0.17006,-0.03195,3351.44,-0.256484,-0.673787,0.082858,-0.688013,-0.86539,0.45457,-0.08519,2.35,2.57,2.67,2.97,3.12,3.06,2.98,3.87,3.17,3.95,4.07,3.95,3.9,3.84,3.7,2346,9.775,59891.487,86.258102,1007.936462,-226.206741,1.69141255436813,2.27940292959722,2.4183667454911,22.455591,799.410278,150.769745,120.897827,1195.286621,-10.385044,"CRUZINT"
43,16,38,11.519,3354.54,0.66116,-0.148927,0.684107,-0.269603,-0.96927,0.1691,-0.02893,3351.46,-0.256413,-0.673842,0.082947,-0.687975,-0.87015,0.45471,-0.08733,2.36,2.57,2.67,2.97,3.12,3.06,2.98,3.87,3.16,3.95,4.07,3.95,3.89,3.84,3.7,2354,9.808333,59891.520333,86.288551,1007.919434,-226.193344,1.69139986039245,2.27936590029032,2.41840667967804,22.440378,799.389893,150.765091,120.925095,1195.263916,-10.361254,"CRUZINT"
44,16,38,11.524,3354.56,0.661204,-0.148884,0.684079,-0.269589,-0.9692,0.17083,-0.03066,3351.48,-0.25637,-0.673918,0.083,-0.68791,-0.87277,0.453,-0.08801,2.35,2.57,2.67,2.97,3.12,3.06,2.98,3.87,3.16,3.95,4.06,3.95,3.9,3.84,3.71,2355,9.8125,59891.5245,86.288307,1007.918457,-226.191788,1.69143263489299,2.27937213776361,2.41839257663754,22.437988,799.387146,150.771286,120.933266,1195.259155,-10.368315,"CRUZINT"
45,16,38,11.56,3354.58,0.661149,-0.148881,0.684159,-0.269524,-0.96804,0.16999,-0.02588,3351.5,-0.256326,-0.673962,0.082908,-0.687894,-0.87299,0.45592,-0.08657,2.36,2.57,2.67,2.97,3.12,3.06,2.98,3.87,3.16,3.95,4.07,3.95,3.89,3.84,3.71,2364,9.85,59891.562,86.293518,1007.911804,-226.15654,1.69143918132709,2.2794237257486,2.41833962288401,22.441902,799.39325,150.770859,120.940712,1195.265747,-10.340888,"CRUZINT"
46,16,38,11.565,3354.6,0.661168,-0.148788,0.684163,-0.269519,-0.96892,0.17085,-0.02569,3351.52,-0.256295,-0.674003,0.082912,-0.687865,-0.86802,0.45979,-0.08407,2.36,2.57,2.67,2.97,3.12,3.06,2.98,3.87,3.16,3.95,4.07,3.95,3.9,3.84,3.7,2365,9.854167,59891.566167,86.292038,1007.908936,-226.155243,1.69145904936902,2.27946099333211,2.41829772263495,22.441036,799.395813,150.775528,120.944679,1195.269775,-10.349014,"CRUZINT"
47,16,38,11.602,3354.62,0.661135,-0.148793,0.684206,-0.269488,-0.97001,0.17065,-0.02771,3351.54,-0.256329,-0.674043,0.082922,-0.687812,-0.86485,0.45956,-0.08644,2.36,2.57,2.67,2.97,3.12,3.06,2.98,3.88,3.16,3.95,4.07,3.95,3.9,3.84,3.7,2374,9.891667,59891.603667,86.316635,1007.881531,-226.145737,1.6914744424537,2.27952258032185,2.41823267932288,22.478527,799.395935,150.774338,120.973816,1195.256592,-10.351025,"CRUZINT"
48,16,38,11.607,3354.64,0.661107,-0.148808,0.684245,-0.269449,-0.9702,0.17144,-0.02715,3351.56,-0.256375,-0.673983,0.082901,-0.687856,-0.86668,0.45314,-0.08798,2.35,2.57,2.67,2.97,3.12,3.06,2.98,3.87,3.16,3.95,4.07,3.95,3.9,3.84,3.71,2375,9.895833,59891.607833,86.324951,1007.879883,-226.14296,1.69143969901604,2.27948069485019,2.41828276155548,22.478195,799.396179,150.774521,120.972778,1195.248901,-10.335121,"CRUZINT"
49,16,38,11.64,3354.66,0.661135,-0.14872,0.684241,-0.269439,-0.97084,0.17113,-0.02802,3351.58,-0.25642,-0.673998,0.082963,-0.687818,-0.87263,0.44784,-0.08629,2.36,2.57,2.67,2.97,3.12,3.06,2.98,3.87,3.16,3.95,4.07,3.95,3.9,3.83,3.7,2383,9.929167,59891.641167,86.339699,1007.865417,-226.099365,1.6915905863098,2.27952401388642,2.4182032627684,22.504084,799.406372,150.775467,121.029495,1195.237671,-10.313852,"CRUZINT"
50,16,38,11.645,3354.68,0.661107,-0.148737,0.684284,-0.269388,-0.96774,0.17045,-0.02588,3351.6,-0.256378,-0.673941,0.083064,-0.687876,-0.87322,0.45569,-0.08292,2.35,2.57,2.67,2.97,3.12,3.06,2.98,3.87,3.16,3.95,4.07,3.95,3.9,3.84,3.71,2384,9.933333,59891.645333,86.338234,1007.864014,-226.093338,1.69163242531078,2.27953463450946,2.41818259659267,22.507139,799.409241,150.781189,121.039749,1195.237305,-10.313242,"CRUZINT"
51,16,38,11.694,3354.7,0.6612,-0.14874,0.684201,-0.269371,-0.96971,0.1697,-0.02745,3351.62,-0.256391,-0.674019,0.083001,-0.687803,-0.86757,0.46392,-0.08292,2.36,2.57,2.67,2.97,3.12,3.06,2.98,3.87,3.16,3.95,4.07,3.95,3.9,3.84,3.7,2396,9.983333,59891.695333,86.380516,1007.887817,-226.08255,1.69204158543743,2.27952603369994,2.41809231918622,22.551964,799.440308,150.795349,121.199738,1195.263428,-10.314822,"CRUZINT"
52,16,38,11.699,3354.72,0.661188,-0.148746,0.684232,-0.269315,-0.96875,0.16954,-0.02745,3351.64,-0.256435,-0.674122,0.082982,-0.687688,-0.86932,0.46116,-0.08991,2.36,2.57,2.67,2.97,3.12,3.06,2.98,3.87,3.16,3.95,4.07,3.95,3.9,3.84,3.7,2397,9.9875,59891.6995,86.390686,1007.893799,-226.092361,1.69208072394653,2.27950264147334,2.41810614321799,22.556505,799.441956,150.793533,121.220863,1195.263062,-10.323421,"CRUZINT"
53,16,38,11.72,3354.74,0.661174,-0.148786,0.684248,-0.26929,-0.9684,0.17072,-0.02794,3351.66,-0.256454,-0.67407,0.082943,-0.687736,-0.86918,0.45363,-0.09054,2.36,2.57,2.67,2.97,3.12,3.06,2.98,3.87,3.16,3.95,4.07,3.95,3.9,3.84,3.7,2402,10.008333,59891.720333,86.438667,1007.900818,-226.12085,1.69210420658608,2.27945566821075,2.41814723851845,22.576483,799.467468,150.782166,121.277611,1195.270874,-10.331341,"CRUZINT"
54,16,38,11.725,3354.76,0.661331,-0.148493,0.68408,-0.269492,-0.96638,0.17078,-0.02851,3351.68,-0.256348,-0.674158,0.083023,-0.68768,-0.86656,0.45274,-0.08221,2.36,2.57,2.67,2.97,3.12,3.06,2.98,3.87,3.16,3.95,4.07,3.95,3.9,3.84,3.7,2404,10.016667,59891.728667,86.459412,1007.896912,-226.136215,1.69211645137862,2.27949315088405,2.41810694565422,22.581821,799.478943,150.781311,121.301376,1195.272583,-10.357354,"CRUZINT"
55,16,38,11.76,3354.78,0.661322,-0.148524,0.684067,-0.269528,-0.97212,0.1694,-0.02952,3351.7,-0.256191,-0.674263,0.083104,-0.687626,-0.86858,0.45335,-0.0809,2.36,2.57,2.67,2.97,3.12,3.06,2.98,3.87,3.16,3.95,4.07,3.95,3.9,3.84,3.7,2412,10.05,59891.762,86.50045,1007.87677,-226.159332,1.69215990313804,2.27960085450069,2.41798916312355,22.601244,799.493591,150.745773,121.354858,1195.276123,-10.402757,"CRUZINT"
56,16,38,11.764,3354.8,0.661397,-0.148577,0.68397,-0.269563,-0.97299,0.16828,-0.02849,3351.72,-0.25613,-0.674324,0.083127,-0.687586,-0.87026,0.45895,-0.08369,2.36,2.57,2.67,2.97,3.12,3.06,2.98,3.87,3.16,3.95,4.07,3.95,3.9,3.84,3.7,2413,10.054167,59891.766167,86.501167,1007.872559,-226.163055,1.69217342408306,2.27961042454179,2.41797635753585,22.611361,799.485535,150.745651,121.359924,1195.276611,-10.405919,"CRUZINT"
57,16,38,11.802,3354.82,0.66143,-0.148544,0.68397,-0.2695,-0.96913,0.16776,-0.02781,3351.74,-0.256222,-0.674356,0.083053,-0.68753,-0.87076,0.45942,-0.08383,2.35,2.57,2.67,2.97,3.12,3.06,2.98,3.87,3.16,3.95,4.07,3.95,3.9,3.83,3.7,2422,10.091667,59891.803667,86.518997,1007.867126,-226.170227,1.69219300339546,2.27967898096737,2.41790334016888,22.61911,799.504883,150.716904,121.383049,1195.284546,-10.428869,"CRUZINT"
58,16,38,11.807,3354.84,0.661431,-0.14854,0.683995,-0.269435,-0.96851,0.16917,-0.02999,3351.76,-0.256299,-0.674387,0.082769,-0.687505,-0.87134,0.4518,-0.0832,2.36,2.57,2.67,2.97,3.12,3.06,2.98,3.87,3.16,3.95,4.07,3.95,3.89,3.84,3.7,2423,10.095833,59891.807833,86.518845,1007.873047,-226.173874,1.69220079269835,2.27970660422116,2.41787394339714,22.612801,799.505859,150.710449,121.385124,1195.296509,-10.438114,"CRUZINT"
59,16,38,11.854,3354.86,0.661464,-0.148626,0.683961,-0.269394,-0.96582,0.1676,-0.02766,3351.78,-0.256211,-0.674442,0.082847,-0.687474,-0.87033,0.44993,-0.08069,2.36,2.57,2.67,2.97,3.12,3.06,2.98,3.87,3.16,3.95,4.07,3.95,3.9,3.83,3.7,2435,10.145833,59891.857833,86.498016,1007.871033,-226.18338,1.69217672399166,2.27979120657383,2.41779551902379,22.558998,799.495483,150.713058,121.358757,1195.32019,-10.454277,"CRUZINT"
60,16,38,11.859,3354.88,0.661452,-0.14858,0.684011,-0.269321,-0.96868,0.17032,-0.02917,3351.8,-0.256046,-0.674459,0.08292,-0.68751,-0.8709,0.45372,-0.08032,2.36,2.57,2.67,2.97,3.12,3.06,2.98,3.87,3.16,3.95,4.06,3.95,3.9,3.83,3.7,2436,10.15,59891.862,86.490868,1007.862427,-226.176224,1.69220670283981,2.27980773721237,2.41777179391115,22.548012,799.495728,150.716965,121.360924,1195.319214,-10.447021,"CRUZINT"
61,16,38,11.881,3354.9,0.661524,-0.148516,0.683967,-0.26929,-0.96964,0.1701,-0.03148,3351.82,-0.255936,-0.674516,0.082933,-0.687494,-0.86947,0.45585,-0.0843,2.36,2.57,2.67,2.97,3.12,3.06,2.98,3.87,3.16,3.95,4.07,3.95,3.9,3.84,3.7,2441,10.170833,59891.882833,86.473091,1007.843384,-226.148071,1.69219946245798,2.27989903589922,2.4176826237739,22.501284,799.494568,150.732956,121.340523,1195.317139,-10.439303,"CRUZINT"
62,16,38,11.888,3354.92,0.661489,-0.148484,0.684035,-0.269223,-0.96891,0.17011,-0.03414,3351.84,-0.255871,-0.674572,0.082916,-0.687465,-0.86947,0.45449,-0.08494,2.36,2.57,2.67,2.97,3.12,3.06,2.98,3.87,3.16,3.95,4.07,3.95,3.9,3.84,3.7,2443,10.179167,59891.891167,86.458611,1007.8349,-226.133621,1.69220498397184,2.27995234563838,2.41762819479019,22.481066,799.494507,150.743073,121.327827,1195.321411,-10.433958,"CRUZINT"
63,16,38,11.921,3354.94,0.661449,-0.148465,0.684093,-0.269184,-0.96685,0.1697,-0.03327,3351.86,-0.255778,-0.674407,0.082536,-0.687707,-0.86806,0.45049,-0.08362,2.36,2.57,2.67,2.97,3.12,3.06,2.98,3.87,3.16,3.95,4.07,3.95,3.9,3.83,3.7,2451,10.2125,59891.9245,86.428802,1007.784851,-226.093063,1.69225144213864,2.28006066743075,2.41750905929351,22.421844,799.458191,150.768997,121.312706,1195.302612,-10.407399,"CRUZINT"
64,16,38,11.925,3354.96,0.661536,-0.148386,0.683992,-0.26927,-0.96842,0.17015,-0.03176,3351.88,-0.255708,-0.674436,0.082496,-0.687709,-0.86851,0.44922,-0.08397,2.35,2.57,2.67,2.97,3.12,3.05,2.98,3.87,3.16,3.95,4.06,3.95,3.89,3.84,3.7,2452,10.216667,59891.928667,86.430191,1007.772095,-226.08786,1.69222359356733,2.28012512170934,2.4174516168002,22.410046,799.454956,150.771835,121.306366,1195.305176,-10.411729,"CRUZINT"
65,16,38,11.961,3354.98,0.661487,-0.148401,0.684043,-0.269255,-0.96877,0.16914,-0.03172,3351.9,-0.255482,-0.674492,0.082496,-0.687739,-0.86841,0.45133,-0.08641,2.36,2.57,2.67,2.97,3.12,3.05,2.98,3.87,3.16,3.95,4.07,3.95,3.9,3.84,3.7,2460,10.25,59891.962,86.465996,1007.676392,-226.017365,1.69244080383623,2.28040137477061,2.41712381994209,22.344366,799.439636,150.804688,121.407379,1195.286621,-10.384463,"CRUZINT"
66,16,38,11.966,3355,0.661515,-0.148349,0.684015,-0.269287,-0.9677,0.17041,-0.0287,3351.92,-0.255149,-0.674651,0.082515,-0.687704,-0.866,0.45051,-0.0893,2.36,2.57,2.67,2.97,3.12,3.06,2.98,3.87,3.16,3.94,4.07,3.95,3.89,3.84,3.7,2461,10.254167,59891.966167,86.482643,1007.656311,-226.009857,1.69242188847261,2.28048815623542,2.41704198271324,22.332691,799.435974,150.806366,121.41967,1195.291138,-10.38609,"CRUZINT"
67,16,38,12.014,3355.02,0.661445,-0.148376,0.68408,-0.269277,-0.96741,0.16987,-0.02764,3351.94,-0.254749,-0.674824,0.082548,-0.687679,-0.86635,0.44699,-0.09019,2.35,2.57,2.67,2.97,3.12,3.05,2.98,3.87,3.16,3.94,4.06,3.95,3.9,3.84,3.7,2473,10.304167,59892.016167,86.845711,1007.351013,-225.971207,1.69192941020049,2.28108289265694,2.416568908409,22.229052,799.424133,150.831055,121.665359,1195.241943,-10.292863,"CRUZINT"
68,16,38,12.019,3355.04,0.661367,-0.148466,0.684111,-0.269338,-0.96791,0.17013,-0.02837,3351.96,-0.254159,-0.674882,0.082576,-0.687837,-0.87073,0.44343,-0.09875,2.35,2.57,2.67,2.97,3.12,3.05,2.98,3.87,3.16,3.95,4.07,3.95,3.89,3.84,3.71,2474,10.308333,59892.020333,86.899162,1007.314453,-225.966461,1.69182173259588,2.28117640484373,2.4165017807924,22.220488,799.42688,150.839905,121.691109,1195.242554,-10.28173,"CRUZINT"
69,16,38,12.04,3355.06,0.661327,-0.148565,0.684105,-0.2694,-0.97074,0.17058,-0.02972,3351.98,-0.253187,-0.675039,0.082828,-0.688011,-0.88208,0.43305,-0.10427,2.36,2.57,2.67,2.97,3.12,3.05,2.99,3.87,3.16,3.94,4.07,3.95,3.9,3.83,3.7,2479,10.329167,59892.041167,87.32251,1007.094055,-225.8806,1.6905163642363,2.28190026848834,2.41609426498271,22.172251,799.400757,150.85997,121.758163,1195.274048,-10.166251,"CRUZINT"
70,16,38,12.046,3355.08,0.661229,-0.148676,0.684156,-0.269446,-0.96957,0.1686,-0.02774,3352,-0.251523,-0.675049,0.083058,-0.688583,-0.90585,0.41987,-0.13499,2.36,2.57,2.67,2.97,3.12,3.05,2.99,3.87,3.16,3.94,4.07,3.95,3.9,3.83,3.7,2481,10.3375,59892.0495,87.575035,1006.979797,-225.825684,1.68959992796538,2.28235751833229,2.41585685260088,22.144379,799.392334,150.869049,121.756531,1195.30481,-10.105035,"CRUZINT"
71,16,38,12.08,3355.1,0.66114,-0.148815,0.684177,-0.269537,-0.97096,0.16729,-0.02921,3352.02,-0.248848,-0.674818,0.083655,-0.689708,-0.90088,0.41469,-0.14708,2.36,2.57,2.67,2.97,3.12,3.05,2.99,3.87,3.16,3.94,4.06,3.95,3.89,3.84,3.7,2489,10.370833,59892.082833,88.821175,1006.604431,-225.579117,1.68468213617047,2.28419028544722,2.41517274917159,22.047512,799.29895,150.915802,121.617714,1195.465942,-9.833508,"CRUZINT"
72,16,38,12.085,3355.12,0.661038,-0.148933,0.684222,-0.269608,-0.96917,0.1716,-0.0278,3352.04,-0.246059,-0.674213,0.084118,-0.691243,-0.8878,0.44015,-0.13332,2.36,2.57,2.67,2.97,3.12,3.05,2.99,3.87,3.16,3.94,4.07,3.95,3.9,3.83,3.7,2490,10.375,59892.087,89.012123,1006.571411,-225.536377,1.68392599248059,2.28443562906819,2.41509961466301,22.032883,799.283813,150.918289,121.59201,1195.487427,-9.803679,"CRUZINT"
73,16,38,12.12,3355.14,0.660915,-0.148957,0.68433,-0.26962,-0.96622,0.17269,-0.03482,3352.06,-0.243674,-0.673305,0.084693,-0.6929,-0.87955,0.45058,-0.11555,2.36,2.57,2.67,2.97,3.12,3.05,2.99,3.86,3.16,3.94,4.07,3.95,3.89,3.84,3.7,2498,10.408333,59892.120333,90.736649,1006.220703,-225.273514,1.6776050039052,2.28636392312413,2.41456599024468,21.930918,799.198364,151.014343,121.501648,1195.546875,-9.654768,"CRUZINT"
74,16,38,12.124,3355.16,0.660815,-0.148733,0.684538,-0.269462,-0.96361,0.17001,-0.02853,3352.08,-0.240773,-0.672311,0.085996,-0.694716,-0.88883,0.42685,-0.11757,2.36,2.57,2.67,2.97,3.12,3.05,2.99,3.87,3.16,3.94,4.07,3.95,3.89,3.84,3.7,2499,10.4125,59892.1245,90.988518,1006.173035,-225.231674,1.67673712320474,2.28666334303246,2.41445194993647,21.917538,799.188538,151.024796,121.501648,1195.546875,-9.654768,"CRUZINT"
75,16,38,12.161,3355.18,0.66076,-0.148435,0.684769,-0.269175,-0.96484,0.17046,-0.03097,3352.1,-0.237181,-0.671181,0.087883,-0.696806,-0.90426,0.41092,-0.12549,2.36,2.57,2.67,2.97,3.12,3.05,2.99,3.86,3.16,3.94,4.07,3.95,3.9,3.83,3.7,2508,10.45,59892.162,93.615005,1006.092529,-224.892853,1.66630595223459,2.28753303766457,2.41568623533943,21.771919,799.093811,151.147873,121.156456,1195.814575,-8.898425,"CRUZINT"
76,16,38,12.166,3355.2,0.660656,-0.148116,0.685091,-0.268787,-0.96872,0.17414,-0.02712,3352.12,-0.23311,-0.669913,0.090488,-0.699062,-0.86904,0.39716,-0.14444,2.36,2.57,2.67,2.97,3.12,3.05,2.99,3.87,3.16,3.94,4.06,3.95,3.9,3.84,3.7,2509,10.454167,59892.166167,93.974739,1006.104614,-224.871887,1.6648802695668,2.28755810995882,2.41593182625746,21.75568,799.084167,151.17189,121.108154,1195.845093,-8.81561,"CRUZINT"
77,16,38,12.2,3355.22,0.660542,-0.147868,0.685426,-0.268348,-0.96964,0.17596,-0.02825,3352.14,-0.227743,-0.668381,0.094212,-0.7018,-0.97586,0.41183,-0.16957,2.36,2.57,2.67,2.97,3.12,3.05,2.99,3.87,3.16,3.94,4.06,3.96,3.9,3.83,3.71,2518,10.491667,59892.203667,97.935303,1006.878357,-224.279053,1.64950506276994,2.28691056733581,2.4192415615869,21.621557,798.980469,151.401031,120.61068,1196.194336,-7.913537,"CRUZINT"
78,16,38,12.204,3355.24,0.66036,-0.147723,0.685793,-0.267936,-0.96898,0.17102,-0.02631,3352.16,-0.221456,-0.66615,0.099028,-0.705262,-0.92671,0.42876,-0.17916,2.36,2.57,2.67,2.97,3.12,3.05,2.99,3.87,3.16,3.94,4.07,3.95,3.89,3.84,3.71,2519,10.495833,59892.207833,98.401978,1006.913879,-224.206573,1.64766262519524,2.2869587616937,2.4194812210804,21.607914,798.961609,151.437393,120.546852,1196.233765,-7.802886,"CRUZINT"
79,16,38,12.255,3355.26,0.660176,-0.147633,0.68616,-0.267502,-0.9681,0.16891,-0.02508,3352.18,-0.215179,-0.663252,0.104648,-0.709115,-0.92308,0.44641,-0.17857,2.36,2.57,2.67,2.97,3.12,3.06,2.99,3.87,3.16,3.94,4.07,3.95,3.9,3.84,3.71,2531,10.545833,59892.257833,106.375343,1008.978271,-224.299774,1.61646224943428,2.28095226811472,2.42932963137564,21.44779,798.74176,151.862762,119.528885,1196.830811,-6.212045,"CRUZINT"
80,16,38,12.261,3355.28,0.660005,-0.147634,0.6865,-0.26705,-0.96613,0.17465,-0.02307,3352.2,-0.208771,-0.659793,0.111527,-0.713197,-0.92357,0.45089,-0.19045,2.36,2.57,2.67,2.97,3.12,3.05,2.99,3.87,3.16,3.95,4.07,3.95,3.9,3.84,3.71,2532,10.55,59892.262,107.046371,1009.173035,-224.225006,1.61376430176882,2.28053153650573,2.42999152996827,21.425529,798.733582,151.906174,119.420547,1196.891968,-6.061106,"CRUZINT"
81,16,38,12.281,3355.3,0.65983,-0.147687,0.686814,-0.266645,-0.96713,0.17693,-0.02283,3352.22,-0.201939,-0.655886,0.119687,-0.717433,-0.94012,0.4465,-0.19896,2.36,2.57,2.67,2.97,3.12,3.05,2.99,3.87,3.16,3.94,4.07,3.95,3.9,3.83,3.71,2537,10.570833,59892.282833,110.403809,1010.221497,-223.813965,1.60032962068076,2.27813226537419,2.43337413929349,21.356274,798.630188,152.089615,118.899406,1197.174438,-5.296852,"CRUZINT"
82,16,38,12.286,3355.32,0.659583,-0.147966,0.687099,-0.266368,-0.96551,0.17334,-0.02488,3352.24,-0.194846,-0.651475,0.128812,-0.72182,-0.94015,0.44674,-0.20733,2.36,2.57,2.67,2.97,3.12,3.06,2.99,3.87,3.16,3.95,4.07,3.95,3.9,3.84,3.71,2538,10.575,59892.287,111.104019,1010.475769,-223.708786,1.59752526131909,2.27759245462966,2.43407342489529,21.34144,798.61499,152.120987,118.790184,1197.239502,-5.144104,"CRUZINT"
83,16,38,12.334,3355.34,0.659253,-0.148411,0.687364,-0.266253,-0.96687,0.17085,-0.0242,3352.26,-0.1874,-0.646521,0.138923,-0.726355,-0.91077,0.44212,-0.20054,2.36,2.57,2.67,2.97,3.12,3.06,2.99,3.87,3.16,3.94,4.07,3.95,3.9,3.84,3.71,2550,10.625,59892.337,120.810638,1014.187439,-222.576492,1.55877492865178,2.26803037766162,2.44421182355132,21.060654,798.37085,152.489914,117.369476,1197.994873,-3.150543,"CRUZINT"
84,16,38,12.339,3355.36,0.658878,-0.148927,0.68762,-0.26623,-0.96756,0.16816,-0.02349,3352.28,-0.1799,-0.641169,0.149808,-0.730819,-0.88813,0.45736,-0.1887,2.36,2.57,2.67,2.97,3.12,3.06,2.99,3.87,3.16,3.95,4.07,3.95,3.89,3.84,3.7,2551,10.629167,59892.341167,121.719215,1014.568237,-222.480698,1.55521454552717,2.26700089104962,2.44514141340079,21.030512,798.350708,152.507645,117.261322,1198.052246,-3.000461,"CRUZINT"
85,16,38,12.36,3355.38,0.658466,-0.149548,0.687869,-0.266258,-0.9694,0.16697,-0.02288,3352.3,-0.172759,-0.635595,0.161412,-0.734928,-0.89362,0.47365,-0.19383,2.36,2.57,2.67,2.97,3.12,3.06,2.98,3.87,3.16,3.95,4.07,3.95,3.9,3.84,3.71,2556,10.65,59892.362,126.678627,1015.687805,-222.721924,1.53595573829137,2.26220116409608,2.44895296955831,20.850948,798.232849,152.585602,116.697456,1198.390869,-2.21202,"CRUZINT"
86,16,38,12.366,3355.4,0.658036,-0.150231,0.688107,-0.266325,-0.96987,0.16333,-0.02398,3352.32,-0.165199,-0.629659,0.17408,-0.738874,-0.90918,0.48028,-0.2082,2.36,2.57,2.67,2.97,3.12,3.06,2.98,3.87,3.16,3.95,4.07,3.95,3.89,3.84,3.71,2557,10.654167,59892.366167,127.6492,1016.114136,-222.616623,1.53221252918513,2.2610405562972,2.44983353534933,20.807137,798.214355,152.601944,116.602402,1198.45813,-2.069971,"CRUZINT"
87,16,38,12.418,3355.42,0.657564,-0.150907,0.688378,-0.266408,-0.96995,0.16187,-0.02117,3352.34,-0.157423,-0.623357,0.187292,-0.742675,-0.89689,0.48047,-0.21917,2.36,2.56,2.67,2.97,3.12,3.06,2.98,3.87,3.16,3.94,4.07,3.95,3.9,3.83,3.71,2570,10.708333,59892.420333,141.180527,1022.707458,-221.05835,1.4802653887541,2.24172183050636,2.46229063324151,20.257999,797.838928,152.642502,115.493271,1199.353027,-0.003494,"CRUZINT"
88,16,38,12.423,3355.44,0.657085,-0.151513,0.688681,-0.266463,-0.97049,0.15756,-0.01957,3352.36,-0.150053,-0.616614,0.20075,-0.746304,-0.88117,0.48575,-0.21953,2.36,2.56,2.67,2.97,3.12,3.06,2.99,3.87,3.16,3.95,4.07,3.95,3.9,3.84,3.71,2571,10.7125,59892.4245,142.256058,1023.261047,-220.889252,1.47613051993246,2.24009652873043,2.46313051655821,20.216927,797.790833,152.634399,115.419983,1199.406982,0.142656,"CRUZINT"
89,16,38,12.442,3355.46,0.656687,-0.152031,0.688966,-0.26641,-0.97001,0.15229,-0.0162,3352.38,-0.142543,-0.609386,0.214477,-0.749886,-0.90641,0.50895,-0.22424,2.36,2.56,2.67,2.97,3.12,3.06,2.98,3.87,3.16,3.95,4.07,3.95,3.9,3.84,3.71,2576,10.733333,59892.445333,148.093842,1026.010864,-219.725571,1.45366607855217,2.23269316991542,2.46565931038413,20.013359,797.69751,152.625916,115.041206,1199.844238,0.919296,"CRUZINT"
90,16,38,12.447,3355.48,0.656291,-0.152423,0.689309,-0.266274,-0.96661,0.1563,-0.01365,3352.4,-0.134911,-0.601624,0.228209,-0.753504,-0.88459,0.51348,-0.22538,2.36,2.56,2.67,2.97,3.12,3.06,2.98,3.87,3.16,3.95,4.07,3.95,3.89,3.84,3.71,2577,10.7375,59892.4495,149.219955,1026.64917,-219.509705,1.44935986758899,2.23088294649354,2.4664143356959,19.979677,797.670654,152.620667,114.988472,1199.924316,1.072565,"CRUZINT"
91,16,38,12.479,3355.5,0.655921,-0.152717,0.689672,-0.266079,-0.96885,0.15831,-0.0146,3352.42,-0.127486,-0.593374,0.241568,-0.757165,-0.8738,0.51334,-0.227,2.36,2.56,2.67,2.97,3.12,3.06,2.98,3.87,3.16,3.94,4.07,3.95,3.89,3.83,3.71,2585,10.770833,59892.482833,158.273392,1031.776733,-217.614166,1.4145375955461,2.21629170025907,2.47106809054465,19.66972,797.536316,152.579834,114.594154,1200.627563,2.291402,"CRUZINT"
92,16,38,12.5,3355.52,0.655596,-0.152935,0.690006,-0.265888,-0.97623,0.16418,-0.01022,3352.44,-0.120221,-0.584618,0.254835,-0.760807,-0.86042,0.50469,-0.23078,2.36,2.56,2.67,2.97,3.12,3.06,2.99,3.87,3.16,3.95,4.06,3.95,3.9,3.84,3.71,2590,10.791667,59892.503667,164.027512,1035.175659,-216.160156,1.3921165891285,2.20665509984741,2.47298550515527,19.510244,797.473206,152.551346,114.385185,1201.050537,3.012324,"CRUZINT"
93,16,38,12.504,3355.54,0.655278,-0.153081,0.690374,-0.265631,-0.97527,0.16384,-0.01163,3352.46,-0.112797,-0.575543,0.268348,-0.76421,-0.8495,0.50037,-0.21662,2.36,2.56,2.67,2.97,3.12,3.06,2.99,3.87,3.16,3.95,4.07,3.95,3.89,3.84,3.71,2591,10.795833,59892.507833,165.173813,1035.86084,-215.842148,1.38764580520404,2.20470753703048,2.47327066054624,19.481688,797.458801,152.550964,114.356163,1201.125244,3.151121,"CRUZINT"
94,16,38,12.541,3355.56,0.654987,-0.153173,0.690733,-0.265363,-0.97182,0.16235,-0.00785,3352.48,-0.105245,-0.566191,0.281595,-0.767499,-0.82584,0.50659,-0.20316,2.36,2.56,2.67,2.97,3.12,3.06,2.98,3.87,3.16,3.95,4.07,3.95,3.89,3.84,3.71,2599,10.829167,59892.541167,167.075104,1037.641235,-219.459595,1.38249187004756,2.19097929496236,2.48479119543247,19.300882,797.361023,152.531219,114.184555,1201.851685,4.301436,"CRUZINT"
95,16,38,12.546,3355.58,0.654669,-0.153286,0.691123,-0.265069,-0.97182,0.16596,-0.00724,3352.5,-0.097793,-0.556836,0.29447,-0.770492,-0.79914,0.51976,-0.20072,2.36,2.56,2.67,2.97,3.12,3.06,2.99,3.87,3.16,3.95,4.07,3.95,3.9,3.84,3.71,2601,10.8375,59892.5495,167.075104,1037.641235,-219.459595,1.38281962520335,2.19093549368811,2.48495857760841,19.267626,797.331482,152.540482,114.2118,1202.039795,4.600412,"CRUZINT"
96,16,38,12.58,3355.6,0.654311,-0.153401,0.691555,-0.264759,-0.97264,0.16724,-0.00295,3352.52,-0.090323,-0.547565,0.307102,-0.773112,-0.79145,0.53871,-0.20605,2.36,2.56,2.67,2.97,3.12,3.06,2.98,3.87,3.16,3.95,4.07,3.95,3.89,3.84,3.71,2609,10.870833,59892.582833,167.075104,1037.641235,-219.459595,1.38414354446975,2.19075862870733,2.48563266375681,19.198772,797.261597,152.606522,114.347137,1202.727417,5.710191,"CRUZINT"
97,16,38,12.585,3355.62,0.653901,-0.153533,0.692042,-0.264421,-0.96978,0.16631,-0.0041,3352.54,-0.083315,-0.53845,0.319143,-0.775421,-0.78753,0.56358,-0.21476,2.36,2.56,2.67,2.97,3.12,3.06,2.99,3.87,3.16,3.95,4.07,3.95,3.89,3.84,3.71,2610,10.875,59892.587,167.075104,1037.641235,-219.459595,1.38433278546679,2.19075406632438,2.48570848871909,19.19453,797.260559,152.624222,114.367699,1202.827515,5.861308,"CRUZINT"
98,16,38,12.635,3355.64,0.653294,-0.153896,0.692597,-0.264257,-0.97147,0.16915,-0.00176,3352.56,-0.076988,-0.529255,0.330497,-0.777646,-0.7805,0.58243,-0.21256,2.36,2.56,2.67,2.97,3.12,3.06,2.98,3.87,3.17,3.95,4.07,3.95,3.9,3.84,3.71,2622,10.925,59892.637,197.115845,1059.135742,-203.410019,1.25999779055513,2.13985578250695,2.47339089848507,19.255571,797.348816,152.674271,114.873505,1204.043213,7.679089,"CRUZINT"
99,16,38,12.64,3355.66,0.652709,-0.154247,0.693099,-0.264184,-0.96845,0.17322,0.00209,3352.58,-0.071115,-0.519938,0.34143,-0.779764,-0.77858,0.59715,-0.2169,2.36,2.56,2.67,2.97,3.12,3.06,2.98,3.87,3.17,3.95,4.07,3.95,3.9,3.83,3.71,2623,10.929167,59892.641167,198.086349,1059.891724,-202.928604,1.25561631350732,2.13767142323208,2.47278850839304,19.268494,797.364136,152.680252,114.873505,1204.043213,7.679089,"CRUZINT"
100,16,38,12.661,3355.68,0.652252,-0.154634,0.693485,-0.264072,-0.97205,0.17247,0.0023,3352.6,-0.065554,-0.510677,0.352075,-0.781636,-0.77985,0.60388,-0.22438,2.36,2.56,2.67,2.97,3.12,3.06,2.98,3.87,3.16,3.95,4.07,3.95,3.9,3.84,3.71,2628,10.95,59892.662,202.784653,1063.720825,-200.655121,1.23676928045696,2.12670449311956,2.47123810730085,19.368065,797.447571,152.695282,115.186012,1204.721558,8.716211,"CRUZINT"
101,16,38,12.667,3355.7,0.651859,-0.155027,0.693807,-0.263965,-0.97961,0.16881,0.00281,3352.62,-0.06018,-0.501503,0.362517,-0.783234,-0.75971,0.61422,-0.2206,2.36,2.56,2.67,2.97,3.12,3.06,2.98,3.87,3.16,3.95,4.07,3.95,3.9,3.84,3.71,2630,10.958333,59892.670333,204.733215,1065.207275,-199.606735,1.22882156643707,2.12258881190676,2.4699131034475,19.404398,797.493591,152.70163,115.335083,1204.953979,9.068496,"CRUZINT"
102,16,38,12.715,3355.72,0.651517,-0.15551,0.694069,-0.263836,-0.97831,0.16448,0.00959,3352.64,-0.054787,-0.492401,0.372851,-0.784552,-0.71031,0.63218,-0.21852,2.36,2.56,2.67,2.97,3.12,3.06,2.98,3.87,3.16,3.95,4.07,3.95,3.89,3.84,3.71,2641,11.004167,59892.716167,214.88414,1074.493652,-194.796219,1.186397393044,2.09404959703935,2.46676618483462,19.76594,797.76709,152.744324,116.014778,1206.239868,11.065931,"CRUZINT"
103,16,38,12.719,3355.74,0.651298,-0.155975,0.69424,-0.263655,-0.97611,0.1642,0.0056,3352.66,-0.05038,-0.483341,0.382806,-0.785686,-0.72222,0.65564,-0.22468,2.36,2.56,2.67,2.97,3.12,3.06,2.98,3.87,3.17,3.95,4.07,3.95,3.9,3.84,3.71,2642,11.008333,59892.720333,215.747665,1075.351074,-194.298737,1.18257355570013,2.09140132478558,2.46637667713869,19.80617,797.77655,152.741486,116.058594,1206.342041,11.263856,"CRUZINT"
104,16,38,12.74,3355.76,0.651069,-0.156461,0.694407,-0.263491,-0.97606,0.16558,0.0101,3352.68,-0.046076,-0.47432,0.392754,-0.786538,-0.7339,0.6827,-0.23823,2.36,2.56,2.67,2.97,3.12,3.06,2.98,3.88,3.16,3.95,4.07,3.95,3.89,3.83,3.71,2647,11.029167,59892.741167,220.10318,1079.481079,-191.986603,1.1640415910837,2.07859766869317,2.46405930100794,20.004467,797.916931,152.775757,116.39283,1206.94812,12.251595,"CRUZINT"
105,16,38,12.746,3355.78,0.650862,-0.157073,0.694515,-0.263355,-0.97341,0.16596,0.00891,3352.7,-0.042567,-0.46504,0.402652,-0.787272,-0.71805,0.67789,-0.24688,2.36,2.56,2.67,2.97,3.12,3.06,2.98,3.87,3.16,3.95,4.07,3.95,3.89,3.84,3.71,2649,11.0375,59892.7495,221.673813,1081.198853,-190.992233,1.15701362459302,2.07343785988261,2.46327084147237,20.086702,797.971375,152.787369,116.531906,1207.17334,12.616988,"CRUZINT"
106,16,38,12.794,3355.8,0.650737,-0.157705,0.694535,-0.263235,-0.97421,0.1633,0.01257,3352.72,-0.039604,-0.455588,0.412393,-0.787911,-0.69332,0.68005,-0.24282,2.36,2.56,2.67,2.97,3.12,3.06,2.98,3.87,3.16,3.95,4.07,3.95,3.89,3.84,3.71,2660,11.083333,59892.795333,229.927155,1090.852051,-185.423553,1.1180777554994,2.04376599674004,2.45805920478278,20.567719,798.322632,152.807724,117.110199,1208.342529,14.553155,"CRUZINT"
107,16,38,12.799,3355.82,0.650685,-0.158401,0.694474,-0.263106,-0.97334,0.15827,0.00401,3352.74,-0.036768,-0.44644,0.422166,-0.788109,-0.68295,0.69306,-0.23326,2.36,2.56,2.67,2.97,3.12,3.06,2.98,3.87,3.17,3.95,4.07,3.95,3.9,3.84,3.71,2661,11.0875,59892.7995,230.600159,1091.699097,-184.935287,1.11473251293496,2.04112642531001,2.45754681654679,20.604982,798.350769,152.802475,117.146255,1208.440796,14.714554,"CRUZINT"
108,16,38,12.822,3355.84,0.650526,-0.159252,0.694421,-0.263124,-0.97264,0.15864,0.00593,3352.76,-0.034492,-0.437029,0.431695,-0.788324,-0.69291,0.6796,-0.22287,2.36,2.56,2.67,2.97,3.12,3.06,2.98,3.87,3.16,3.95,4.07,3.95,3.89,3.84,3.71,2667,11.1125,59892.8245,234.728714,1097.222412,-181.718079,1.09325590610504,2.0236491746643,2.45415662944435,20.820702,798.547729,152.74411,117.364502,1208.952393,15.646346,"CRUZINT"
109,16,38,12.829,3355.86,0.650284,-0.160182,0.694367,-0.2633,-0.974,0.15806,0.00419,3352.78,-0.032455,-0.427339,0.440722,-0.788729,-0.64741,0.67542,-0.1981,2.36,2.57,2.67,2.97,3.12,3.06,2.98,3.87,3.17,3.95,4.06,3.95,3.9,3.84,3.71,2669,11.120833,59892.832833,235.711212,1098.468628,-180.917908,1.08816191328794,2.01967810078496,2.45307768237379,20.887295,798.603882,152.713562,117.394272,1209.0979,15.937077,"CRUZINT"
110,16,38,12.874,3355.88,0.650041,-0.161165,0.694306,-0.263462,-0.97562,0.15759,0.00415,3352.8,-0.03051,-0.417853,0.449547,-0.788908,-0.62348,0.70675,-0.1985,2.36,2.56,2.67,2.97,3.12,3.06,2.98,3.87,3.17,3.95,4.07,3.95,3.9,3.84,3.71,2679,11.1625,59892.8745,241.118134,1106.796509,-176.24913,1.05657303207954,1.99193613104663,2.4476605559746,21.219547,798.850586,152.501205,117.313828,1209.69458,17.247416,"CRUZINT"
111,16,38,12.879,3355.9,0.64984,-0.162127,0.694253,-0.263507,-0.97088,0.14922,0.00565,3352.82,-0.028953,-0.408305,0.458411,-0.788865,-0.63824,0.71573,-0.21057,2.36,2.56,2.67,2.97,3.12,3.06,2.98,3.87,3.16,3.95,4.07,3.95,3.9,3.84,3.71,2681,11.170833,59892.882833,242.104568,1108.477051,-175.31073,1.05037338949603,1.98627814860221,2.44651232378764,21.262537,798.893738,152.451324,117.27771,1209.802856,17.485374,"CRUZINT"
112,16,38,12.9,3355.92,0.649692,-0.162982,0.694196,-0.263494,-0.97285,0.14369,0.0045,3352.84,-0.027299,-0.398714,0.467278,-0.788628,-0.61577,0.72334,-0.2195,2.36,2.56,2.67,2.97,3.12,3.06,2.98,3.87,3.16,3.95,4.07,3.95,3.9,3.84,3.71,2686,11.191667,59892.903667,244.384781,1112.615845,-172.880493,1.03498709314367,1.97233852819308,2.44323070727885,21.361057,798.979553,152.309601,117.106895,1210.052612,18.058992,"CRUZINT"
113,16,38,12.905,3355.94,0.649499,-0.163831,0.694141,-0.263586,-0.97025,0.14342,0.00283,3352.86,-0.025863,-0.389331,0.475872,-0.788225,-0.58597,0.71946,-0.22923,2.36,2.57,2.67,2.97,3.12,3.06,2.98,3.87,3.16,3.95,4.07,3.95,3.9,3.84,3.71,2687,11.195833,59892.907833,244.807785,1113.408691,-172.411026,1.03204930377468,1.96964705819178,2.44256883071164,21.376831,798.991211,152.278336,117.071892,1210.0979,18.166901,"CRUZINT"
114,16,38,12.94,3355.96,0.649338,-0.164656,0.694051,-0.263707,-0.96884,0.14383,0.00352,3352.88,-0.024524,-0.380124,0.484224,-0.787674,-0.58388,0.73263,-0.23661,2.36,2.57,2.67,2.97,3.12,3.06,2.98,3.87,3.17,3.95,4.07,3.95,3.9,3.83,3.71,2695,11.229167,59892.941167,248.137741,1120.325562,-168.399628,1.00680446520304,1.94553532276128,2.43680680512388,21.437344,799.125854,152.010941,116.522247,1210.446045,19.151588,"CRUZINT"
115,16,38,12.946,3355.98,0.649197,-0.165378,0.693984,-0.263778,-0.96952,0.14516,-0.00488,3352.9,-0.02294,-0.370937,0.492652,-0.786876,-0.59431,0.73373,-0.24264,2.36,2.57,2.67,2.97,3.12,3.06,2.98,3.87,3.17,3.95,4.07,3.95,3.9,3.84,3.71,2697,11.2375,59892.9495,248.817657,1121.875977,-167.379501,1.00095658430626,1.9402442887676,2.43507037264332,21.432995,799.170654,151.946976,116.352806,1210.538452,19.379547,"CRUZINT"
116,16,38,12.98,3356,0.649123,-0.166024,0.693877,-0.263837,-0.97055,0.14258,-2e-05,3352.92,-0.020475,-0.361591,0.500805,-0.786147,-0.56766,0.75094,-0.23518,2.36,2.57,2.67,2.97,3.12,3.06,2.98,3.87,3.17,3.95,4.07,3.95,3.9,3.84,3.71,2705,11.270833,59892.982833,251.363129,1128.145874,-163.243347,0.977381493653955,1.91829920117976,2.42776426766597,21.377354,799.3078,151.71431,115.56324,1210.848267,20.31653,"CRUZINT"
117,16,38,12.985,3356.02,0.649029,-0.166523,0.693856,-0.263812,-0.97178,0.14322,0.00098,3352.94,-0.0185,-0.352388,0.508272,-0.785583,-0.51315,0.77032,-0.23509,2.36,2.57,2.67,2.97,3.12,3.06,2.98,3.87,3.17,3.95,4.07,3.95,3.9,3.83,3.71,2706,11.275,59892.987,251.635498,1128.918945,-162.726578,0.974532375046711,1.915584497925,2.42684307741775,21.368671,799.317566,151.68811,115.464272,1210.879761,20.415443,"CRUZINT"
118,16,38,13.036,3356.04,0.648896,-0.166993,0.693876,-0.263787,-0.97283,0.14364,-0.00351,3352.96,-0.016677,-0.343008,0.51545,-0.785098,-0.50023,0.78538,-0.23291,2.36,2.57,2.67,2.97,3.12,3.06,2.98,3.87,3.17,3.95,4.07,3.95,3.9,3.84,3.71,2718,11.325,59893.037,254.891876,1137.627075,-156.446075,0.939371046959857,1.88366848013415,2.41313200803684,21.23735,799.439575,151.437607,113.895332,1211.14563,21.789356,"CRUZINT"
119,16,38,13.043,3356.06,0.648723,-0.167502,0.693876,-0.263891,-0.97539,0.14453,-0.00302,3352.98,-0.014737,-0.333625,0.522497,-0.784521,-0.49207,0.7756,-0.22642,2.36,2.57,2.67,2.97,3.12,3.06,2.98,3.87,3.17,3.95,4.07,3.95,3.9,3.84,3.71,2720,11.333333,59893.045333,255.329224,1138.970093,-155.410049,0.93379895517075,1.87872275508597,2.41067433732996,21.213802,799.464294,151.379333,113.617279,1211.182007,21.987497,"CRUZINT"
120,16,38,13.061,3356.08,0.648426,-0.168048,0.693987,-0.263979,-0.97083,0.14657,-0.00492,3353,-0.012494,-0.324225,0.529377,-0.783889,-0.46633,0.73504,-0.21345,2.36,2.57,2.67,2.97,3.12,3.06,2.98,3.87,3.17,3.95,4.07,3.95,3.9,3.84,3.71,2724,11.35,59893.062,256.168793,1141.693481,-153.438141,0.922641451574597,1.86845642233874,2.40578663878064,21.18182,799.505432,151.259369,112.991005,1211.248901,22.366667,"CRUZINT"
121,16,38,13.066,3356.1,0.648126,-0.168518,0.694129,-0.264046,-0.96498,0.15051,0.00038,3353.02,-0.010223,-0.315076,0.535795,-0.783292,-0.4725,0.79911,-0.18581,2.36,2.57,2.67,2.97,3.12,3.06,2.98,3.87,3.17,3.95,4.06,3.95,3.9,3.84,3.71,2725,11.354167,59893.066167,256.346161,1142.308228,-152.953323,0.919998761249322,1.86605538818099,2.40457685466116,21.182178,799.505798,151.223007,112.815552,1211.248779,22.479946,"CRUZINT"
122,16,38,13.102,3356.12,0.647807,-0.168985,0.694285,-0.264119,-0.9687,0.15299,0.00722,3353.04,-0.008575,-0.306536,0.541333,-0.782893,-0.42636,0.82139,-0.18783,2.36,2.57,2.67,2.97,3.12,3.06,2.98,3.87,3.16,3.95,4.07,3.95,3.89,3.84,3.71,2734,11.391667,59893.103667,257.677216,1147.543823,-148.854889,0.898165588325113,1.84611619010253,2.39413973783386,21.115833,799.568115,150.944931,111.405251,1211.366943,23.330151,"CRUZINT"
123,16,38,13.107,3356.14,0.647537,-0.169346,0.694447,-0.264124,-0.97496,0.13935,0.00814,3353.06,-0.007232,-0.298524,0.54626,-0.78258,-0.43541,0.8253,-0.18358,2.36,2.57,2.67,2.97,3.12,3.06,2.98,3.87,3.16,3.95,4.07,3.95,3.9,3.84,3.71,2735,11.395833,59893.107833,257.78772,1148.090088,-148.43924,0.895906801190377,1.84396298579064,2.39305666450464,21.121002,799.56488,150.923477,111.229027,1211.37146,23.42312,"CRUZINT"
124,16,38,13.154,3356.16,0.647282,-0.169689,0.694568,-0.264209,-0.97562,0.14539,0.01249,3353.08,-0.005852,-0.290877,0.550871,-0.782238,-0.41099,0.81536,-0.18159,2.36,2.57,2.67,2.97,3.12,3.06,2.98,3.87,3.17,3.95,4.07,3.96,3.9,3.83,3.71,2747,11.445833,59893.157833,259.285858,1154.590088,-143.249283,0.868662456565647,1.81846704379786,2.37898559705648,21.026764,799.609009,150.60965,109.445374,1211.465454,24.499535,"CRUZINT"
125,16,38,13.159,3356.18,0.647055,-0.169998,0.694744,-0.264104,-0.97198,0.13841,0.00936,3353.1,-0.004755,-0.283793,0.555245,-0.781756,-0.40346,0.8384,-0.19439,2.36,2.57,2.67,2.97,3.12,3.06,2.98,3.87,3.16,3.95,4.07,3.95,3.89,3.84,3.71,2748,11.45,59893.162,259.323334,1155.037231,-142.896606,0.866994134049924,1.81669791330187,2.37817725447716,21.019678,799.60675,150.579834,109.287003,1211.477173,24.61157,"CRUZINT"
126,16,38,13.182,3356.2,0.646821,-0.17037,0.69483,-0.264211,-0.96917,0.15213,0.012,3353.12,-0.003966,-0.276936,0.559705,-0.781038,-0.39762,0.86072,-0.20049,2.36,2.57,2.67,2.97,3.12,3.06,2.98,3.87,3.17,3.95,4.07,3.95,3.9,3.84,3.71,2753,11.470833,59893.182833,259.516541,1157.241577,-141.214401,0.858928987274559,1.80801918640632,2.37423751224841,20.949707,799.605896,150.478363,108.603394,1211.532104,25.061672,"CRUZINT"
127,16,38,13.187,3356.22,0.646599,-0.170612,0.695048,-0.264025,-0.96933,0.14933,0.00825,3353.14,-0.004173,-0.269955,0.564104,-0.780316,-0.33965,0.89197,-0.17951,2.36,2.57,2.67,2.97,3.12,3.06,2.98,3.87,3.17,3.95,4.07,3.95,3.89,3.84,3.71,2754,11.475,59893.187,259.539276,1157.648193,-140.874847,0.857367052812327,1.80643340039831,2.37341379128094,20.931938,799.613342,150.462158,108.467522,1211.541748,25.143326,"CRUZINT"
128,16,38,13.218,3356.24,0.646364,-0.170843,0.695231,-0.263969,-0.97163,0.14804,0.01011,3353.16,-0.003924,-0.263748,0.567661,-0.779861,-0.42995,0.87156,-0.19498,2.36,2.57,2.67,2.97,3.12,3.06,2.98,3.87,3.16,3.95,4.07,3.95,3.9,3.84,3.71,2762,11.508333,59893.220333,259.437317,1160.886597,-138.433029,0.846424633711476,1.79324609659482,2.36839771947643,20.824726,799.617737,150.348648,107.291214,1211.540283,25.885836,"CRUZINT"
129,16,38,13.241,3356.26,0.646236,-0.170941,0.695369,-0.263857,-0.9688,0.14926,0.00698,3353.18,-0.004142,-0.257914,0.570722,-0.779577,-0.37057,0.87948,-0.20377,2.36,2.57,2.67,2.97,3.12,3.06,2.98,3.87,3.17,3.95,4.07,3.95,3.89,3.84,3.71,2767,11.529167,59893.241167,259.173309,1162.926514,-136.966629,0.840416540266921,1.78503625573331,2.36590171720555,20.763287,799.623474,150.312378,106.570343,1211.557251,26.337788,"CRUZINT"
130,16,38,13.246,3356.28,0.646029,-0.171117,0.695577,-0.263701,-0.9673,0.14118,0.00743,3353.2,-0.004412,-0.25197,0.573946,-0.779152,-0.36844,0.8833,-0.20789,2.36,2.57,2.67,2.97,3.12,3.06,2.98,3.87,3.17,3.95,4.07,3.95,3.9,3.83,3.71,2769,11.5375,59893.2495,259.042175,1163.704224,-136.377075,0.838133202119408,1.781929501787,2.36491348906656,20.744543,799.624451,150.304031,106.267036,1211.57251,26.538124,"CRUZINT"
131,16,38,13.3,3356.3,0.645885,-0.170903,0.695814,-0.263568,-0.9729,0.1532,0.01175,3353.22,-0.00488,-0.246203,0.576972,-0.778758,-0.34912,0.87081,-0.19421,2.36,2.57,2.67,2.97,3.12,3.06,2.98,3.87,3.17,3.95,4.06,3.95,3.89,3.84,3.71,2782,11.591667,59893.303667,259.080383,1169.216797,-132.53009,0.820040046993075,1.75894506910734,2.35582446842632,20.668266,799.608765,150.291794,104.403473,1211.625488,27.736559,"CRUZINT"
132,16,38,13.305,3356.32,0.645678,-0.17111,0.696,-0.26345,-0.97405,0.14207,0.00708,3353.24,-0.005457,-0.241122,0.579475,-0.778485,-0.34546,0.89458,-0.1773,2.36,2.57,2.67,2.97,3.12,3.06,2.98,3.87,3.17,3.95,4.07,3.95,3.9,3.84,3.71,2783,11.595833,59893.307833,259.039093,1169.575806,-132.290207,0.818974521447534,1.75744740016863,2.35530969682449,20.660574,799.606445,150.287979,104.256569,1211.631592,27.820473,"CRUZINT"
133,16,38,13.31,3356.34,0.645492,-0.171309,0.696191,-0.263271,-0.97658,0.15398,0.01336,3353.26,-0.006386,-0.236467,0.581503,-0.778394,-0.32506,0.8719,-0.16678,2.36,2.57,2.67,2.97,3.12,3.06,2.98,3.87,3.17,3.95,4.07,3.94,3.9,3.84,3.71,2784,11.6,59893.312,258.982239,1169.92749,-132.052551,0.818009773949237,1.75598368813051,2.3548788694647,20.654129,799.605225,150.285477,104.135422,1211.631592,27.890533,"CRUZINT"
134,16,38,13.341,3356.36,0.645303,-0.171612,0.696268,-0.263333,-0.97314,0.14361,0.01217,3353.28,-0.007601,-0.232514,0.583481,-0.778094,-0.30737,0.88757,-0.17784,2.36,2.57,2.67,2.97,3.12,3.06,2.98,3.87,3.17,3.95,4.06,3.94,3.9,3.84,3.71,2791,11.629167,59893.341167,258.481995,1172.220947,-130.583176,0.81234203812301,1.74641448290776,2.35259932864485,20.631702,799.545471,150.282104,103.262268,1211.650269,28.418833,"CRUZINT"
135,16,38,13.346,3356.38,0.645068,-0.171848,0.696457,-0.263257,-0.97199,0.14879,0.01801,3353.3,-0.009072,-0.228828,0.585668,-0.777527,-0.31805,0.89444,-0.18148,2.36,2.57,2.67,2.97,3.12,3.06,2.98,3.88,3.17,3.95,4.06,3.94,3.9,3.84,3.71,2793,11.6375,59893.3495,258.319977,1172.86438,-130.204224,0.810902883874266,1.74369882690996,2.35208955526087,20.631203,799.524231,150.281662,102.99736,1211.656982,28.580458,"CRUZINT"
136,16,38,13.381,3356.4,0.644888,-0.172073,0.696579,-0.263227,-0.96931,0.14324,0.01787,3353.32,-0.010783,-0.225513,0.5877,-0.776941,-0.2982,0.90442,-0.18668,2.36,2.57,2.67,2.97,3.12,3.06,2.98,3.87,3.17,3.95,4.05,3.93,3.89,3.84,3.71,2801,11.670833,59893.382833,257.511719,1175.304077,-128.707916,0.806010675677675,1.73296719618126,2.35073141060851,20.575768,799.441956,150.284912,101.994156,1211.57019,29.246895,"CRUZINT"
137,16,38,13.386,3356.42,0.644638,-0.172274,0.696815,-0.263084,-0.96885,0.14239,0.01674,3353.34,-0.012767,-0.222686,0.589536,-0.776334,-0.30818,0.91005,-0.19983,2.36,2.57,2.67,2.97,3.12,3.06,2.98,3.87,3.17,3.95,4.06,3.93,3.88,3.84,3.71,2802,11.675,59893.387,257.394775,1175.60437,-128.539093,0.805497551139795,1.73157944058739,2.35065913765899,20.572243,799.430359,150.286499,101.863647,1211.546753,29.333555,"CRUZINT"
138,16,38,13.434,3356.44,0.644362,-0.172514,0.697043,-0.262996,-0.97089,0.14443,0.01697,3353.36,-0.014581,-0.220212,0.591366,-0.775616,-0.30844,0.90618,-0.20787,2.36,2.57,2.67,2.97,3.12,3.06,2.98,3.87,3.17,3.95,4.05,3.93,3.88,3.84,3.71,2814,11.725,59893.437,256.08551,1179.048828,-126.419472,0.798315182858241,1.71683794210786,2.3479327430603,20.474476,799.351807,150.242355,100.12207,1211.56897,30.287331,"CRUZINT"
139,16,38,13.439,3356.46,0.644178,-0.172741,0.697178,-0.262942,-0.97159,0.13984,0.01371,3353.38,-0.015949,-0.217857,0.593182,-0.774867,-0.30244,0.90229,-0.22965,2.36,2.57,2.67,2.97,3.12,3.06,2.98,3.87,3.17,3.95,4.06,3.92,3.88,3.83,3.71,2815,11.729167,59893.441167,255.987137,1179.293823,-126.196739,0.797618507837236,1.71582746748816,2.34752621590314,20.467062,799.357117,150.24176,99.968697,1211.578857,30.388617,"CRUZINT"
140,16,38,13.461,3356.48,0.643881,-0.172962,0.697489,-0.262699,-0.97119,0.14254,0.0177,3353.4,-0.016864,-0.215323,0.594941,-0.774207,-0.2744,0.8848,-0.23411,2.36,2.57,2.67,2.97,3.12,3.06,2.98,3.88,3.17,3.95,4.05,3.92,3.87,3.83,3.71,2820,11.75,59893.462,255.555634,1180.419922,-125.026566,0.794002071467258,1.71142677863946,2.34515018385892,20.424206,799.370178,150.217545,99.127731,1211.698364,31.012499,"CRUZINT"
141,16,38,13.466,3356.5,0.643641,-0.173178,0.697732,-0.2625,-0.97433,0.14005,0.02039,3353.42,-0.017304,-0.213607,0.596648,-0.773359,-0.25052,0.86412,-0.20897,2.36,2.57,2.67,2.97,3.12,3.06,2.98,3.87,3.16,3.95,4.05,3.92,3.86,3.83,3.7,2821,11.754167,59893.466167,255.468216,1180.618652,-124.817818,0.793398221344452,1.71066161468977,2.34475813982021,20.419695,799.367004,150.214249,98.992744,1211.718384,31.110363,"CRUZINT"
142,16,38,13.5,3356.52,0.64335,-0.173401,0.698046,-0.262231,-0.97742,0.13794,0.01896,3353.44,-0.016873,-0.212671,0.597756,-0.77277,-0.27881,0.89483,-0.12709,2.36,2.57,2.67,2.97,3.12,3.06,2.98,3.87,3.17,3.95,4.04,3.92,3.85,3.83,3.7,2830,11.791667,59893.503667,254.901291,1181.731201,-123.71006,0.789792622679296,1.70696771956701,2.34215872832762,20.273506,799.387573,150.14119,98.079971,1211.971069,31.578686,"CRUZINT"
143,16,38,13.505,3356.54,0.642927,-0.173759,0.698314,-0.262316,-0.98303,0.14839,0.021,3353.46,-0.01647,-0.211553,0.598281,-0.77268,-0.23401,0.91002,-0.14411,2.36,2.57,2.67,2.97,3.12,3.06,2.98,3.87,3.17,3.95,4.04,3.93,3.84,3.83,3.7,2831,11.795833,59893.507833,254.850388,1181.810669,-123.609261,0.78944782164996,1.70672979617347,2.34187777083552,20.252506,799.386902,150.136642,97.985207,1211.995972,31.624039,"CRUZINT"
144,16,38,13.554,3356.56,0.642582,-0.174149,0.698498,-0.262414,-0.97859,0.13677,0.02124,3353.48,-0.016336,-0.211139,0.599215,-0.772072,-0.23047,0.89615,-0.15913,2.36,2.57,2.67,2.97,3.12,3.06,2.98,3.87,3.17,3.95,4.03,3.93,3.84,3.82,3.69,2843,11.845833,59893.557833,254.541931,1182.563721,-122.692116,0.785345280632382,1.70377671469806,2.33855816028299,19.926867,799.327942,150.134781,97.17453,1212.069946,31.867399,"CRUZINT"
145,16,38,13.559,3356.58,0.642232,-0.174494,0.698709,-0.262482,-0.97267,0.13808,0.02502,3353.5,-0.01594,-0.211268,0.600509,-0.771039,-0.25024,0.88154,-0.16262,2.36,2.57,2.67,2.97,3.12,3.06,2.98,3.87,3.17,3.95,4.02,3.93,3.83,3.82,3.69,2844,11.85,59893.562,254.52179,1182.541504,-122.682594,0.785263163701671,1.70391467675466,2.33843968935493,19.890448,799.320435,150.126465,97.142303,1212.078003,31.857132,"CRUZINT"
146,16,38,13.58,3356.6,0.641909,-0.174834,0.69887,-0.262617,-0.97562,0.13534,0.01139,3353.52,-0.015206,-0.211941,0.600954,-0.770522,-0.25973,0.90001,-0.15414,2.36,2.57,2.67,2.97,3.12,3.06,2.98,3.87,3.17,3.95,4.01,3.93,3.82,3.82,3.69,2849,11.870833,59893.582833,254.524673,1182.222534,-122.734383,0.784656039966492,1.70539291604118,2.33744086391857,19.744883,799.304443,150.051651,97.030876,1212.088623,31.663773,"CRUZINT"
147,16,38,13.585,3356.62,0.641413,-0.17544,0.698988,-0.263107,-0.96919,0.14816,0.01634,3353.54,-0.014389,-0.21256,0.600631,-0.770619,-0.25159,0.91903,-0.16117,2.36,2.57,2.67,2.97,3.12,3.06,2.98,3.87,3.16,3.95,4,3.94,3.82,3.81,3.69,2850,11.875,59893.587,254.537369,1182.134888,-122.746468,0.784514026614335,1.70574108170783,2.33720597065926,19.711906,799.305176,150.041519,97.012917,1212.079346,31.622187,"CRUZINT"
148,16,38,13.634,3356.64,0.641081,-0.175881,0.699086,-0.263365,-0.96512,0.14111,0.01899,3353.56,-0.013519,-0.213025,0.599848,-0.771116,-0.26125,0.87606,-0.18774,2.36,2.57,2.67,2.97,3.12,3.06,2.98,3.87,3.17,3.95,3.99,3.94,3.81,3.81,3.69,2862,11.925,59893.637,254.761871,1180.352783,-123.177101,0.783774907854734,1.71248859201622,2.33462184591834,19.501797,799.235046,149.915482,96.999115,1211.809082,30.895954,"CRUZINT"
149,16,38,13.639,3356.66,0.64101,-0.176094,0.699047,-0.263497,-0.97196,0.13569,0.02748,3353.58,-0.012167,-0.213593,0.599025,-0.771621,-0.26355,0.88564,-0.15754,2.36,2.57,2.67,2.97,3.12,3.06,2.98,3.87,3.17,3.95,3.98,3.94,3.8,3.81,3.69,2863,11.929167,59893.641167,254.780762,1180.158447,-123.279854,0.78393315304706,1.71326284782435,2.33456297276824,19.484238,799.227783,149.918121,97.017685,1211.790527,30.80835,"CRUZINT"
150,16,38,13.661,3356.68,0.640966,-0.17607,0.699109,-0.263456,-0.97862,0.1311,0.02525,3353.6,-0.010633,-0.21475,0.598196,-0.771966,-0.26737,0.90702,-0.13402,2.36,2.57,2.67,2.97,3.12,3.06,2.98,3.87,3.17,3.95,3.98,3.94,3.8,3.8,3.68,2868,11.95,59893.662,254.800079,1178.769165,-123.817543,0.785320715359995,1.71882285771744,2.3343578234947,19.453075,799.116211,149.895035,97.155006,1211.647827,30.335838,"CRUZINT"
151,16,38,13.666,3356.7,0.64098,-0.175796,0.699174,-0.263433,-0.97709,0.13865,0.02954,3353.62,-0.009669,-0.216287,0.596789,-0.772638,-0.25248,0.93724,-0.139,2.36,2.57,2.67,2.97,3.12,3.06,2.98,3.87,3.17,3.95,3.97,3.95,3.8,3.8,3.69,2869,11.954167,59893.666167,254.816681,1178.53833,-123.951317,0.78560994600726,1.71965133658011,2.33440473592709,19.445089,799.102295,149.895615,97.183067,1211.606812,30.24301,"CRUZINT"
152,16,38,13.701,3356.72,0.641003,-0.175493,0.699218,-0.26346,-0.9706,0.14917,0.03467,3353.64,-0.009445,-0.21801,0.595364,-0.773255,-0.27175,0.91319,-0.18012,2.36,2.57,2.67,2.97,3.12,3.06,2.98,3.87,3.17,3.95,3.96,3.95,3.8,3.8,3.69,2878,11.991667,59893.703667,255.021271,1176.860229,-125.431343,0.788918886644107,1.7252524260985,2.33604215344287,19.479607,798.953918,149.950073,97.564575,1211.23877,29.366434,"CRUZINT"
153,16,38,13.706,3356.74,0.641052,-0.175207,0.699217,-0.263535,-0.959,0.14966,0.03392,3353.66,-0.009352,-0.219781,0.594319,-0.773559,-0.29053,0.92146,-0.17986,2.36,2.57,2.67,2.97,3.12,3.06,2.98,3.87,3.17,3.95,3.96,3.95,3.8,3.79,3.69,2879,11.995833,59893.707833,255.032532,1176.650757,-125.592369,0.789348665033582,1.72597818362521,2.33625093929755,19.48595,798.948181,149.958618,97.608238,1211.197388,29.274235,"CRUZINT"
154,16,38,13.755,3356.76,0.641142,-0.174798,0.699179,-0.263689,-0.96158,0.14673,0.02597,3353.68,-0.009371,-0.221836,0.592988,-0.773993,-0.29398,0.91309,-0.17477,2.36,2.57,2.67,2.97,3.12,3.06,2.98,3.87,3.17,3.95,3.96,3.95,3.79,3.79,3.69,2891,12.045833,59893.757833,254.63858,1173.119507,-128.13385,0.799153906246563,1.7394979771541,2.3417552168697,19.676701,798.825012,150.064804,98.28553,1210.766968,28.10931,"CRUZINT"
155,16,38,13.76,3356.78,0.641192,-0.174363,0.699201,-0.263795,-0.97142,0.15201,0.02905,3353.7,-0.009693,-0.224165,0.59122,-0.774671,-0.30104,0.9239,-0.16847,2.36,2.57,2.67,2.97,3.12,3.06,2.98,3.87,3.17,3.95,3.96,3.95,3.8,3.78,3.69,2892,12.05,59893.762,254.586868,1172.825684,-128.374573,0.800060910437874,1.74056928345052,2.3423063501241,19.697493,798.822632,150.083176,98.33168,1210.721558,28.005207,"CRUZINT"
156,16,38,13.781,3356.8,0.641237,-0.173817,0.699231,-0.263969,-0.97388,0.15618,0.03094,3353.72,-0.010417,-0.226703,0.589273,-0.775406,-0.31076,0.90897,-0.18877,2.36,2.57,2.67,2.97,3.12,3.06,2.98,3.86,3.17,3.95,3.95,3.95,3.8,3.78,3.69,2897,12.070833,59893.782833,254.281281,1171.356934,-129.613998,0.804834592058145,1.74582440479565,2.34530189038468,19.821255,798.770325,150.186417,98.563972,1210.47229,27.480782,"CRUZINT"
157,16,38,13.787,3356.82,0.641363,-0.173368,0.699185,-0.26408,-0.97384,0.15198,0.02992,3353.74,-0.011305,-0.229311,0.587455,-0.776006,-0.3128,0.89132,-0.19498,2.36,2.57,2.67,2.97,3.12,3.05,2.97,3.86,3.17,3.95,3.95,3.95,3.8,3.77,3.69,2898,12.075,59893.787,254.222122,1171.063721,-129.863785,0.805814627742117,1.7468436005257,2.34593077925575,19.846495,798.763733,150.21022,98.620895,1210.415283,27.375036,"CRUZINT"
158,16,38,13.821,3356.84,0.641596,-0.172822,0.699096,-0.264108,-0.9745,0.14678,0.02699,3353.76,-0.012183,-0.232185,0.585397,-0.776693,-0.31463,0.87641,-0.17454,2.36,2.57,2.67,2.97,3.12,3.05,2.97,3.86,3.17,3.95,3.95,3.95,3.81,3.77,3.7,2907,12.1125,59893.8245,253.414566,1168.032349,-132.493256,0.816920356091108,1.75784440150746,2.35311493495068,20.147795,798.62262,150.407242,99.079163,1209.962769,26.454651,"CRUZINT"
159,16,38,13.827,3356.86,0.641842,-0.172341,0.698917,-0.264297,-0.97653,0.1513,0.02251,3353.78,-0.013177,-0.235597,0.582746,-0.777643,-0.32213,0.87967,-0.16795,2.36,2.57,2.67,2.97,3.12,3.05,2.97,3.85,3.17,3.94,3.95,3.94,3.81,3.76,3.7,2908,12.116667,59893.828667,253.307037,1167.659058,-132.811676,0.818265171168406,1.75918013373769,2.35396719628924,20.177151,798.614502,150.434708,99.131783,1209.9021,26.335503,"CRUZINT"
160,16,38,13.862,3356.88,0.642002,-0.172021,0.698743,-0.264576,-0.96805,0.15531,0.02584,3353.8,-0.014203,-0.239433,0.579959,-0.778536,-0.33193,0.88414,-0.17409,2.36,2.57,2.67,2.97,3.12,3.05,2.96,3.85,3.17,3.94,3.95,3.94,3.81,3.76,3.7,2916,12.15,59893.862,251.22937,1164.00415,-135.939026,0.83558006550603,1.77335739723767,2.36581991533083,20.419752,798.456116,150.667923,99.597534,1209.483398,25.443525,"CRUZINT"
161,16,38,13.868,3356.9,0.642221,-0.171643,0.698515,-0.264892,-0.96638,0.15527,0.02811,3353.82,-0.015337,-0.243691,0.577193,-0.779248,-0.32826,0.88686,-0.19402,2.36,2.57,2.67,2.97,3.12,3.05,2.96,3.85,3.17,3.94,3.94,3.93,3.82,3.75,3.71,2918,12.158333,59893.870333,251.013672,1163.281616,-136.581848,0.838356401318676,1.77598347951999,2.36754051891389,20.477251,798.415955,150.735687,99.70192,1209.386719,25.228979,"CRUZINT"
162,16,38,13.917,3356.92,0.642485,-0.171216,0.698293,-0.265114,-0.97065,0.14837,0.02176,3353.84,-0.016682,-0.248403,0.574287,-0.779879,-0.32908,0.85985,-0.19697,2.36,2.57,2.67,2.97,3.12,3.05,2.95,3.84,3.18,3.94,3.94,3.92,3.82,3.75,3.72,2930,12.208333,59893.920333,249.501663,1158.532471,-140.665985,0.856365163826536,1.79321710198173,2.37827005707117,20.738174,798.195129,151.103409,100.209976,1208.796631,23.973324,"CRUZINT"
163,16,38,13.922,3356.94,0.642736,-0.170832,0.698048,-0.265397,-0.97117,0.15058,0.01805,3353.86,-0.018127,-0.253856,0.571276,-0.780303,-0.35172,0.86046,-0.19233,2.36,2.57,2.67,2.97,3.12,3.05,2.95,3.84,3.18,3.94,3.94,3.92,3.82,3.75,3.72,2931,12.2125,59893.9245,249.347366,1158.120605,-141.039719,0.857961498062025,1.79464122689032,2.37923630723292,20.751455,798.181641,151.131088,100.254211,1208.727173,23.836269,"CRUZINT"
164,16,38,13.94,3356.96,0.643048,-0.170432,0.697706,-0.265797,-0.9673,0.15411,0.00861,3353.88,-0.019533,-0.260039,0.568361,-0.780362,-0.37791,0.88337,-0.19502,2.36,2.57,2.67,2.97,3.12,3.05,2.95,3.84,3.18,3.94,3.93,3.91,3.82,3.75,3.73,2935,12.229167,59893.941167,248.64473,1156.425049,-142.543381,0.864503308732763,1.80070805544636,2.38304837939314,20.792953,798.108093,151.247192,100.36248,1208.491821,23.290077,"CRUZINT"
165,16,38,13.945,3356.98,0.643265,-0.170075,0.697487,-0.266075,-0.97116,0.15505,0.0112,3353.9,-0.020846,-0.266284,0.565613,-0.780218,-0.37322,0.87985,-0.2247,2.36,2.57,2.67,2.97,3.12,3.05,2.94,3.83,3.18,3.94,3.93,3.91,3.83,3.74,3.73,2936,12.233333,59893.945333,248.464798,1155.977295,-142.91008,0.866092877789124,1.80231890235112,2.38390176367693,20.79916,798.087463,151.27272,100.37426,1208.432373,23.152487,"CRUZINT"
166,16,38,13.98,3357,0.64361,-0.169711,0.69715,-0.266358,-0.97517,0.14764,0.01287,3353.92,-0.021938,-0.272209,0.562865,-0.780131,-0.35148,0.84614,-0.2595,2.36,2.57,2.67,2.97,3.12,3.05,2.93,3.83,3.19,3.94,3.93,3.91,3.84,3.73,3.74,2945,12.270833,59893.982833,246.921021,1151.748657,-146.009674,0.880122910103906,1.81770155504655,2.39064745992602,20.842747,797.932922,151.491272,100.538254,1207.907837,21.969614,"CRUZINT"
167,16,38,13.985,3357.02,0.643878,-0.169333,0.696916,-0.266562,-0.9752,0.14422,0.00875,3353.94,-0.022408,-0.278177,0.559867,-0.78017,-0.36574,0.81866,-0.25305,2.36,2.57,2.67,2.97,3.12,3.04,2.93,3.82,3.19,3.93,3.92,3.91,3.84,3.73,3.74,2946,12.275,59893.987,246.774246,1151.25061,-146.32399,0.88161471164137,1.81955319289864,2.39123289728341,20.848154,797.919006,151.50798,100.573875,1207.854004,21.841368,"CRUZINT"
168,16,38,14.022,3357.04,0.644067,-0.169009,0.696727,-0.266804,-0.97459,0.14638,0.00694,3353.96,-0.022262,-0.284531,0.555821,-0.780775,-0.39706,0.84481,-0.22681,2.36,2.57,2.67,2.97,3.12,3.04,2.92,3.82,3.19,3.93,3.92,3.92,3.84,3.73,3.74,2955,12.3125,59894.0245,244.489105,1145.37207,-149.985306,0.901076525693916,1.84217749496209,2.39903865377763,20.786264,797.788269,151.553452,100.779503,1207.429443,20.57354,"CRUZINT"
169,16,38,14.027,3357.06,0.644259,-0.168781,0.69645,-0.26721,-0.97576,0.1464,0.00603,3353.98,-0.021832,-0.291102,0.550312,-0.782266,-0.40695,0.87648,-0.21601,2.36,2.57,2.67,2.97,3.12,3.04,2.92,3.82,3.19,3.93,3.92,3.91,3.85,3.72,3.75,2956,12.316667,59894.028667,244.229187,1144.672241,-150.399582,0.903192953313125,1.8448867774418,2.39969446984976,20.776058,797.778748,151.549118,100.797981,1207.380005,20.388166,"CRUZINT"
170,16,38,14.077,3357.08,0.64434,-0.168468,0.696288,-0.267634,-0.9725,0.15114,0.01116,3354,-0.021735,-0.297196,0.543665,-0.784621,-0.40274,0.8749,-0.2237,2.36,2.57,2.67,2.97,3.12,3.03,2.91,3.81,3.19,3.93,3.92,3.91,3.85,3.72,3.75,2968,12.366667,59894.078667,241.436264,1136.886108,-155.315262,0.926702689795471,1.87339633318427,2.40690662594926,20.667252,797.637085,151.524261,100.921791,1206.620605,18.326813,"CRUZINT"
171,16,38,14.082,3357.1,0.644568,-0.168018,0.696101,-0.267854,-0.97212,0.14784,0.01165,3354.02,-0.022196,-0.302675,0.537331,-0.786874,-0.4055,0.84987,-0.23565,2.36,2.57,2.67,2.97,3.12,3.03,2.91,3.8,3.19,3.92,3.91,3.91,3.86,3.72,3.75,2969,12.370833,59894.082833,241.217712,1136.286865,-155.703552,0.928623718832829,1.87562125069906,2.40748353333968,20.657015,797.62439,151.535797,100.937241,1206.581177,18.184835,"CRUZINT"
172,16,38,14.102,3357.12,0.644792,-0.167485,0.695961,-0.268012,-0.97562,0.14033,0.0083,3354.04,-0.02303,-0.308465,0.531817,-0.788346,-0.41139,0.84352,-0.24118,2.36,2.57,2.67,2.97,3.12,3.02,2.9,3.8,3.18,3.92,3.91,3.9,3.86,3.72,3.75,2974,12.391667,59894.103667,239.908417,1133.210205,-157.712021,0.938972555646784,1.88681539925579,2.41088707231077,20.635252,797.527527,151.571899,101.028618,1206.289307,17.400145,"CRUZINT"
173,16,38,14.107,3357.14,0.644962,-0.167001,0.695862,-0.268161,-0.97968,0.1419,0.00399,3354.06,-0.023919,-0.315168,0.526802,-0.789035,-0.42325,0.85266,-0.23617,2.36,2.57,2.67,2.97,3.12,3.01,2.89,3.79,3.18,3.92,3.91,3.9,3.87,3.72,3.76,2975,12.395833,59894.107833,239.655762,1132.60791,-158.134155,0.941043086720663,1.88896080942101,2.41159247260154,20.631121,797.511353,151.578964,101.051857,1206.228638,17.237066,"CRUZINT"
174,16,38,14.152,3357.16,0.645077,-0.16661,0.695727,-0.268478,-0.97327,0.15904,0.01099,3354.08,-0.024795,-0.321961,0.522266,-0.789281,-0.46408,0.83815,-0.25256,2.36,2.57,2.67,2.97,3.12,2.99,2.89,3.78,3.18,3.91,3.9,3.89,3.87,3.72,3.76,2986,12.441667,59894.153667,236.75914,1126.1875,-162.434784,0.964057371450398,1.91184572167744,2.41936974241167,20.652327,797.434875,151.575165,101.39296,1205.59375,15.699059,"CRUZINT"
175,16,38,14.157,3357.18,0.645205,-0.16616,0.695648,-0.268655,-0.96465,0.16957,0.01003,3354.1,-0.025497,-0.328168,0.518088,-0.789456,-0.48312,0.78925,-0.26397,2.36,2.57,2.68,2.97,3.12,2.97,2.88,3.77,3.18,3.91,3.9,3.88,3.87,3.72,3.76,2987,12.445833,59894.157833,236.496796,1125.549805,-162.832687,0.966254802865456,1.91414669677488,2.41997687709062,20.657949,797.435364,151.569046,101.428535,1205.548218,15.5694,"CRUZINT"
176,16,38,14.182,3357.2,0.645372,-0.165621,0.695589,-0.268739,-0.96497,0.16359,0.00713,3354.12,-0.026118,-0.334407,0.513193,-0.790014,-0.47716,0.81353,-0.24683,2.36,2.57,2.68,2.96,3.12,2.96,2.87,3.76,3.18,3.9,3.9,3.88,3.88,3.71,3.77,2993,12.470833,59894.182833,234.636932,1121.622803,-165.389191,0.980434445168859,1.92800015971006,2.42427313584751,20.675472,797.40387,151.559647,101.561005,1205.211792,14.759891,"CRUZINT"
177,16,38,14.187,3357.22,0.645493,-0.165198,0.695562,-0.268777,-0.97264,0.16007,0.00614,3354.14,-0.027262,-0.341401,0.507229,-0.790835,-0.46451,0.87202,-0.24498,2.36,2.57,2.68,2.96,3.12,2.94,2.86,3.75,3.18,3.89,3.9,3.87,3.88,3.71,3.77,2994,12.475,59894.187,234.312378,1120.97168,-165.822815,0.982836308823355,1.9302821538327,2.42500015026566,20.675371,797.399963,151.570557,101.57914,1205.156982,14.623587,"CRUZINT"
178,16,38,14.22,3357.24,0.645655,-0.16473,0.695531,-0.268756,-0.98139,0.15949,0.01556,3354.16,-0.029309,-0.347931,0.50103,-0.791867,-0.52316,0.87165,-0.26283,2.36,2.57,2.68,2.95,3.12,2.93,2.85,3.75,3.18,3.89,3.9,3.85,3.88,3.71,3.77,3002,12.508333,59894.220333,231.705521,1116.249756,-169.296173,1.00156090661584,1.9464670220923,2.43135590431028,20.751165,797.301575,151.677536,101.772705,1204.696777,13.483416,"CRUZINT"
179,16,38,14.224,3357.26,0.645931,-0.164157,0.695453,-0.268647,-0.98195,0.15901,0.01092,3354.18,-0.031649,-0.353555,0.4952,-0.792953,-0.52277,0.802,-0.29921,2.36,2.57,2.69,2.95,3.12,2.92,2.84,3.74,3.19,3.88,3.9,3.84,3.89,3.71,3.78,3003,12.5125,59894.2245,231.347626,1115.657104,-169.676208,1.00392613674195,1.94847095651418,2.43213923693676,20.768768,797.294617,151.692062,101.798561,1204.619873,13.363335,"CRUZINT"
180,16,38,14.261,3357.28,0.646042,-0.16381,0.695438,-0.268629,-0.96903,0.16005,-0.00044,3354.2,-0.034011,-0.359504,0.489516,-0.793709,-0.46969,0.74581,-0.28575,2.36,2.57,2.69,2.94,3.12,2.91,2.83,3.74,3.19,3.87,3.9,3.83,3.89,3.72,3.78,3012,12.55,59894.262,228.547241,1110.526978,-173.232086,1.02407855551004,1.96497835540519,2.43879117416179,20.873287,797.273987,151.744675,102.056839,1203.968628,12.417243,"CRUZINT"
181,16,38,14.266,3357.3,0.646195,-0.16331,0.695316,-0.26888,-0.95525,0.16997,0.00464,3354.22,-0.036937,-0.366408,0.483537,-0.794086,-0.46737,0.75187,-0.22885,2.36,2.57,2.69,2.93,3.13,2.9,2.82,3.73,3.19,3.87,3.91,3.82,3.89,3.72,3.78,3013,12.554167,59894.266167,228.206238,1109.966919,-173.646591,1.02647430724955,1.96681836684443,2.43962054341636,20.886385,797.261414,151.746216,102.098251,1203.908081,12.303968,"CRUZINT"
182,16,38,14.3,3357.32,0.64631,-0.163064,0.695227,-0.268985,-0.9694,0.17348,0.00727,3354.24,-0.039472,-0.373503,0.477876,-0.794086,-0.56845,0.811,-0.20557,2.36,2.57,2.69,2.92,3.13,2.89,2.81,3.73,3.19,3.87,3.91,3.81,3.89,3.72,3.79,3022,12.591667,59894.303667,224.606186,1104.460815,-177.677429,1.05096459122411,1.98507352994773,2.44793448889243,20.962667,797.182434,151.794693,102.572899,1203.350464,11.222214,"CRUZINT"
183,16,38,14.305,3357.34,0.646466,-0.162679,0.695194,-0.26893,-0.98043,0.16181,0.00997,3354.26,-0.04223,-0.380649,0.472126,-0.79399,-0.61129,0.82343,-0.26618,2.35,2.57,2.7,2.91,3.13,2.88,2.8,3.72,3.19,3.86,3.91,3.8,3.9,3.72,3.79,3023,12.595833,59894.307833,224.150681,1103.843628,-178.146042,1.05387921777367,1.98708381672057,2.44897673622882,20.96788,797.185974,151.811768,102.627159,1203.276978,11.091933,"CRUZINT"
184,16,38,14.341,3357.36,0.646732,-0.162336,0.695074,-0.268807,-0.97644,0.1552,0.00246,3354.28,-0.044494,-0.387319,0.466142,-0.794176,-0.60043,0.79023,-0.32539,2.35,2.57,2.7,2.91,3.13,2.87,2.78,3.72,3.19,3.85,3.91,3.79,3.9,3.72,3.79,3031,12.629167,59894.341167,220.912918,1099.299194,-181.077896,1.07312778157228,2.00140192696662,2.45470008344392,21.058992,797.187927,151.958725,102.702179,1202.663086,10.390718,"CRUZINT"
185,16,38,14.346,3357.38,0.646859,-0.162029,0.695116,-0.268578,-0.96211,0.15946,0.00387,3354.3,-0.047908,-0.393729,0.460221,-0.794279,-0.43349,0.72498,-0.32192,2.35,2.57,2.7,2.91,3.13,2.86,2.77,3.72,3.19,3.85,3.9,3.78,3.9,3.72,3.79,3033,12.6375,59894.3495,220.123352,1098.182495,-181.87677,1.07794528148601,2.00470906227084,2.45624330969248,21.087074,797.173828,152.008698,102.702789,1202.520508,10.258434,"CRUZINT"
186,16,38,14.382,3357.4,0.647165,-0.161658,0.694953,-0.268486,-0.96802,0.16504,-0.00106,3354.32,-0.051745,-0.400651,0.454652,-0.793784,-0.6187,0.73047,-0.30293,2.34,2.57,2.7,2.91,3.12,2.86,2.76,3.72,3.19,3.84,3.9,3.77,3.9,3.72,3.79,3041,12.670833,59894.382833,216.965637,1093.921387,-184.619186,1.09714481102604,2.01855407285556,2.46146615844899,21.15189,797.131531,152.121872,102.979698,1202.11145,9.670979,"CRUZINT"
187,16,38,14.387,3357.42,0.647319,-0.161517,0.69485,-0.268467,-0.97562,0.17003,0.00037,3354.34,-0.054392,-0.407345,0.449115,-0.793352,-0.64893,0.74744,-0.28533,2.33,2.57,2.71,2.91,3.12,2.85,2.74,3.72,3.2,3.83,3.9,3.77,3.9,3.72,3.79,3042,12.675,59894.387,216.49324,1093.363647,-184.979797,1.09986585122564,2.02049712354683,2.46216750616794,21.153599,797.135132,152.122269,103.012543,1202.08728,9.592496,"CRUZINT"
188,16,38,14.436,3357.44,0.647426,-0.161499,0.69469,-0.268632,-0.9714,0.17113,0.00141,3354.36,-0.056336,-0.414027,0.442721,-0.793351,-0.62422,0.75921,-0.29921,2.33,2.58,2.71,2.91,3.12,2.85,2.73,3.71,3.2,3.83,3.89,3.76,3.9,3.72,3.8,3054,12.725,59894.437,211.580399,1086.651733,-188.873093,1.1290231367822,2.04334305000821,2.46714321672178,21.125469,797.177673,152.182465,103.320396,1201.903564,8.900119,"CRUZINT"
189,16,38,14.44,3357.46,0.647675,-0.161252,0.694432,-0.268848,-0.9628,0.16654,0.00199,3354.38,-0.058386,-0.42045,0.435935,-0.793583,-0.55638,0.75187,-0.31383,2.32,2.58,2.71,2.91,3.12,2.84,2.72,3.71,3.2,3.82,3.89,3.76,3.9,3.72,3.8,3055,12.729167,59894.441167,211.191116,1086.103149,-189.195801,1.1313900811339,2.04515793292223,2.46750521066259,21.125381,797.180359,152.190811,103.352432,1201.893677,8.856472,"CRUZINT"
190,16,38,14.461,3357.48,0.647902,-0.160929,0.69435,-0.268706,-0.97267,0.14982,-0.00112,3354.4,-0.061542,-0.426837,0.428191,-0.794151,-0.55164,0.73265,-0.30204,2.31,2.58,2.72,2.92,3.12,2.84,2.71,3.71,3.2,3.79,3.89,3.77,3.9,3.72,3.8,3060,12.75,59894.462,209.183258,1083.387939,-190.771194,1.14318648408695,2.05393005926691,2.46937210501341,21.129555,797.199341,152.196716,103.540009,1201.732788,8.554049,"CRUZINT"
191,16,38,14.466,3357.5,0.648244,-0.160993,0.693997,-0.268756,-0.98289,0.14535,-0.00499,3354.42,-0.065298,-0.433316,0.419902,-0.794768,-0.60915,0.70163,-0.27082,2.3,2.59,2.72,2.92,3.11,2.84,2.7,3.71,3.2,3.79,3.89,3.77,3.9,3.72,3.8,3061,12.754167,59894.466167,208.767136,1082.885986,-191.070313,1.14549304920923,2.05552167655794,2.46980963953715,21.132393,797.20105,152.190872,103.573586,1201.686035,8.486076,"CRUZINT"
192,16,38,14.5,3357.52,0.648276,-0.161024,0.693876,-0.268971,-0.9748,0.15989,-0.00464,3354.44,-0.068552,-0.439621,0.412104,-0.795112,-0.70705,0.68201,-0.26917,2.29,2.59,2.72,2.93,3.11,2.84,2.69,3.71,3.2,3.79,3.88,3.77,3.9,3.72,3.8,3070,12.791667,59894.503667,204.681793,1077.946899,-193.568604,1.16672984603176,2.07170446068973,2.4720394326207,21.136965,797.230225,152.122986,103.753067,1201.225342,7.718398,"CRUZINT"
193,16,38,14.505,3357.54,0.648297,-0.160991,0.6938,-0.269136,-0.9684,0.17582,-0.0012,3354.46,-0.070307,-0.445589,0.405697,-0.794932,-0.71791,0.67217,-0.29122,2.28,2.59,2.73,2.93,3.1,2.84,2.68,3.71,3.21,3.78,3.88,3.77,3.9,3.72,3.8,3071,12.795833,59894.507833,204.23349,1077.418213,-193.825668,1.16902363357034,2.07348970094895,2.47219260402865,21.131279,797.235962,152.124008,103.774071,1201.187622,7.630882,"CRUZINT"
194,16,38,14.555,3357.56,0.648492,-0.16074,0.693739,-0.268973,-0.96927,0.16361,0.00452,3354.48,-0.070925,-0.451378,0.399887,-0.794555,-0.60107,0.6558,-0.29679,2.27,2.6,2.73,2.94,3.09,2.84,2.67,3.7,3.21,3.78,3.88,3.78,3.9,3.72,3.8,3083,12.845833,59894.557833,198.857834,1070.52063,-197.058197,1.19741033987669,2.09550245298128,2.47324375005055,21.171753,797.224792,152.134918,104.100327,1200.65625,6.823702,"CRUZINT"
195,16,38,14.56,3357.58,0.648646,-0.160536,0.693718,-0.268778,-0.97314,0.15168,0.00167,3354.5,-0.073198,-0.458103,0.392722,-0.794074,-0.43508,0.6367,-0.24798,2.26,2.6,2.74,2.95,3.08,2.84,2.67,3.7,3.21,3.78,3.88,3.78,3.9,3.72,3.8,3084,12.85,59894.562,198.386368,1069.929443,-197.346405,1.19986838417505,2.09730745997551,2.47334495984691,21.175592,797.218262,152.12915,104.133842,1200.595215,6.746328,"CRUZINT"
196,16,38,14.582,3357.6,0.649011,-0.159982,0.693399,-0.26905,-0.96908,0.16012,-0.00251,3354.52,-0.076276,-0.465409,0.385196,-0.793222,-0.71387,0.69496,-0.25354,2.25,2.61,2.74,2.96,3.07,2.84,2.66,3.7,3.21,3.77,3.88,3.79,3.9,3.72,3.8,3089,12.870833,59894.582833,195.885254,1066.988037,-198.667343,1.21246305508096,2.10655947536536,2.47366435944261,21.154367,797.220032,152.122101,104.324501,1200.263428,6.300151,"CRUZINT"
197,16,38,14.587,3357.62,0.64904,-0.159922,0.693351,-0.26914,-0.9634,0.17034,-0.00357,3354.54,-0.078799,-0.472204,0.378121,-0.792363,-0.76376,0.69826,-0.2911,2.24,2.61,2.75,2.97,3.05,2.84,2.65,3.7,3.21,3.77,3.89,3.8,3.9,3.72,3.8,3090,12.875,59894.587,195.279037,1066.035645,-198.630493,1.21532045310928,2.11026155091219,2.47223977717066,21.153755,797.213623,152.123642,104.366692,1200.21582,6.220374,"CRUZINT"
198,16,38,14.622,3357.64,0.649141,-0.159708,0.693311,-0.269128,-0.96906,0.16929,0.00031,3354.56,-0.080477,-0.477846,0.37132,-0.792027,-0.79236,0.68338,-0.32854,2.22,2.62,2.75,2.98,3.04,2.84,2.65,3.7,3.21,3.76,3.88,3.8,3.9,3.72,3.8,3099,12.9125,59894.6245,190.529266,1061.297729,-200.731598,1.23728853351561,2.12548596724955,2.47269005396878,21.099888,797.212036,152.272858,104.468369,1199.758667,5.509531,"CRUZINT"
199,16,38,14.627,3357.66,0.649408,-0.159514,0.69318,-0.268935,-0.97339,0.16239,-0.00309,3354.58,-0.08212,-0.482821,0.364418,-0.792047,-0.68427,0.67372,-0.32504,2.21,2.63,2.76,2.99,3.02,2.84,2.64,3.69,3.22,3.76,3.89,3.81,3.9,3.72,3.8,3100,12.916667,59894.628667,190.048691,1060.845703,-200.990311,1.23947444968802,2.12683723103836,2.47283166696012,21.098125,797.208252,152.308228,104.460114,1199.723511,5.444875,"CRUZINT"
200,16,38,14.661,3357.68,0.649506,-0.159398,0.693164,-0.268808,-0.96809,0.15904,-0.00565,3354.6,-0.085717,-0.488793,0.357203,-0.79129,-0.48157,0.65554,-0.27926,2.19,2.64,2.77,3,2.99,2.84,2.63,3.7,3.21,3.76,3.88,3.81,3.9,3.73,3.8,3108,12.95,59894.662,186.79184,1057.246338,-203.173599,1.25538809849898,2.13681186378131,2.47345041730422,21.079916,797.158752,152.578522,104.547226,1199.428589,4.946728,"CRUZINT"
201,16,38,14.666,3357.7,0.649866,-0.1588,0.692831,-0.269152,-0.96763,0.16809,-0.00973,3354.62,-0.089886,-0.495483,0.350061,-0.789857,-0.68323,0.69648,-0.25804,2.18,2.65,2.78,3.01,2.98,2.84,2.63,3.7,3.21,3.76,3.88,3.82,3.9,3.73,3.8,3109,12.954167,59894.666167,186.36821,1056.785278,-203.483032,1.2575525421818,2.13803269211963,2.47362211509163,21.07522,797.146851,152.60318,104.586182,1199.38562,4.877358,"CRUZINT"
202,16,38,14.701,3357.72,0.649881,-0.158753,0.692783,-0.269266,-0.97241,0.17662,-0.00781,3354.64,-0.094393,-0.502035,0.342612,-0.788459,-0.74008,0.68185,-0.25099,2.16,2.66,2.78,3.03,2.95,2.84,2.63,3.69,3.21,3.76,3.88,3.82,3.9,3.73,3.8,3118,12.991667,59894.703667,181.782135,1052.752075,-205.837234,1.27912671380302,2.1501017482329,2.47492761667864,21.013567,797.103699,152.640152,104.914581,1199.093018,4.244307,"CRUZINT"
203,16,38,14.706,3357.74,0.649786,-0.158879,0.692737,-0.269539,-0.96603,0.1793,-0.01074,3354.66,-0.098852,-0.50797,0.335327,-0.787242,-0.81604,0.64019,-0.26308,2.15,2.67,2.79,3.04,2.95,2.84,2.63,3.69,3.21,3.76,3.89,3.83,3.9,3.73,3.81,3119,12.995833,59894.707833,181.524277,1052.648926,-206.428833,1.28065335380717,2.14951637723531,2.47634296395109,21.008671,797.103699,152.626221,104.939133,1199.066406,4.184949,"CRUZINT"
204,16,38,14.74,3357.76,0.649773,-0.15882,0.692663,-0.269795,-0.9608,0.17055,-0.00424,3354.68,-0.102523,-0.512972,0.329021,-0.78619,-0.82113,0.60273,-0.28864,2.14,2.68,2.8,3.05,2.93,2.84,2.63,3.7,3.21,3.76,3.9,3.84,3.9,3.73,3.81,3127,13.029167,59894.741167,177.071808,1049.387817,-208.189362,1.3004570213149,2.15958304402993,2.47764881735835,20.964798,797.140564,152.534027,105.221367,1198.802002,3.701016,"CRUZINT"
205,16,38,14.745,3357.78,0.649784,-0.158686,0.692717,-0.269708,-0.97138,0.1528,0.00185,3354.7,-0.106391,-0.517911,0.322599,-0.785098,-0.71934,0.62322,-0.28376,2.13,2.69,2.8,3.06,2.93,2.84,2.63,3.7,3.21,3.76,3.89,3.85,3.9,3.73,3.8,3128,13.033333,59894.745333,176.572968,1049.036621,-208.431717,1.30274123906479,2.16052781778168,2.47795610242767,20.960817,797.138245,152.518646,105.268738,1198.759155,3.647039,"CRUZINT"
206,16,38,14.781,3357.8,0.649882,-0.158857,0.692692,-0.269437,-0.97986,0.14132,0.00131,3354.72,-0.111283,-0.524093,0.315704,-0.783118,-0.48828,0.59481,-0.26135,2.12,2.7,2.81,3.07,2.93,2.85,2.64,3.7,3.21,3.76,3.9,3.85,3.89,3.73,3.8,3137,13.070833,59894.782833,171.371658,1046.653076,-211.118332,1.32532337840493,2.16612290342178,2.48405380051194,20.949226,797.120483,152.425705,105.586594,1198.458008,3.14323,"CRUZINT"
207,16,38,14.786,3357.82,0.649995,-0.158653,0.692715,-0.269225,-0.97977,0.15201,0.00492,3354.74,-0.116781,-0.530938,0.30917,-0.780308,-0.8294,0.60238,-0.25783,2.1,2.7,2.82,3.08,2.92,2.85,2.64,3.7,3.21,3.77,3.9,3.86,3.89,3.74,3.8,3138,13.075,59894.787,170.917892,1046.300049,-211.334152,1.32736889621187,2.16709552452527,2.48411287246112,20.950174,797.122131,152.41774,105.624893,1198.428223,3.085624,"CRUZINT"
208,16,38,14.822,3357.84,0.650142,-0.158409,0.692702,-0.269046,-0.9707,0.16474,-0.00014,3354.76,-0.121292,-0.536874,0.302906,-0.778012,-0.84992,0.58644,-0.27703,2.09,2.71,2.83,3.09,2.92,2.85,2.65,3.7,3.21,3.77,3.9,3.87,3.89,3.73,3.8,3147,13.1125,59894.8245,166.420258,1043.46814,-213.306564,1.34669869422741,2.17493095968875,2.48556765065764,20.929798,797.1474,152.328476,105.867775,1198.250854,2.613479,"CRUZINT"
209,16,38,14.827,3357.86,0.65038,-0.158057,0.692606,-0.268927,-0.9635,0.16888,-0.00256,3354.78,-0.125059,-0.541619,0.296559,-0.77657,-0.87263,0.57274,-0.28179,2.08,2.71,2.84,3.09,2.92,2.85,2.65,3.7,3.21,3.77,3.91,3.88,3.88,3.74,3.8,3148,13.116667,59894.828667,165.894501,1043.178467,-213.501907,1.34888666054102,2.17578094465814,2.48572160208484,20.920929,797.162537,152.321228,105.889328,1198.239868,2.56653,"CRUZINT"
210,16,38,14.861,3357.88,0.650577,-0.157795,0.692554,-0.268735,-0.96542,0.16446,-0.00455,3354.8,-0.128718,-0.545764,0.290457,-0.775376,-0.7605,0.56637,-0.26922,2.08,2.72,2.85,3.1,2.91,2.85,2.66,3.71,3.21,3.78,3.91,3.89,3.88,3.74,3.8,3156,13.15,59894.862,161.918106,1040.797241,-214.921051,1.36527611381352,2.18268119705865,2.48605387062526,20.912209,797.218384,152.328278,106.04155,1198.072266,2.127222,"CRUZINT"
211,16,38,14.866,3357.9,0.650822,-0.157576,0.692426,-0.268603,-0.97341,0.16197,-0.00412,3354.82,-0.13192,-0.550055,0.28496,-0.773844,-0.7293,0.5466,-0.24133,2.07,2.72,2.86,3.11,2.91,2.86,2.66,3.7,3.22,3.78,3.91,3.89,3.87,3.74,3.8,3157,13.154167,59894.866167,162.05162,1040.098633,-214.869934,1.36510525382296,2.18489765643871,2.48382613240664,20.909605,797.222778,152.336594,106.063774,1198.05481,2.059738,"CRUZINT"
212,16,38,14.9,3357.92,0.650949,-0.157367,0.692383,-0.268527,-0.97691,0.16616,-0.00555,3354.84,-0.135784,-0.555169,0.278954,-0.771709,-0.54492,0.52842,-0.20342,2.07,2.73,2.87,3.11,2.91,2.86,2.66,3.71,3.22,3.78,3.92,3.9,3.87,3.74,3.8,3166,13.191667,59894.903667,156.941147,1037.347778,-216.686478,1.38585655351334,2.19251897060904,2.48455311844319,20.896412,797.227478,152.378311,106.286476,1197.789063,1.428408,"CRUZINT"
213,16,38,14.905,3357.94,0.651,-0.157213,0.692359,-0.268556,-0.97374,0.17109,-0.00767,3354.86,-0.139254,-0.560978,0.27308,-0.768986,-0.87748,0.53591,-0.22419,2.06,2.73,2.88,3.12,2.9,2.86,2.67,3.71,3.22,3.78,3.92,3.91,3.87,3.74,3.8,3167,13.195833,59894.907833,156.899078,1036.665894,-216.641769,1.38630716019646,2.1946932296257,2.48259222137219,20.893711,797.230408,152.382721,106.317368,1197.749878,1.354194,"CRUZINT"
214,16,38,14.954,3357.96,0.651192,-0.156975,0.692116,-0.268855,-0.96762,0.17102,-0.00961,3354.88,-0.141486,-0.566241,0.267579,-0.766651,-0.9043,0.52905,-0.24976,2.06,2.74,2.89,3.12,2.9,2.86,2.67,3.71,3.22,3.79,3.93,3.91,3.87,3.75,3.79,3179,13.245833,59894.957833,149.65712,1032.490723,-218.230377,1.41438422121308,2.20758165552494,2.47961238159488,20.827875,797.279114,152.340134,106.469238,1197.344482,0.454019,"CRUZINT"
215,16,38,14.959,3357.98,0.651151,-0.157036,0.69206,-0.269064,-0.96387,0.16879,-0.00781,3354.9,-0.143413,-0.570792,0.261436,-0.765036,-0.79909,0.5433,-0.25277,2.05,2.74,2.89,3.13,2.9,2.87,2.68,3.71,3.22,3.79,3.94,3.91,3.86,3.74,3.79,3180,13.25,59894.962,149.113892,1032.151123,-218.339249,1.41642623515132,2.20859647696581,2.47925542271552,20.826832,797.27179,152.343048,106.466553,1197.303711,0.380584,"CRUZINT"
216,16,38,14.98,3358,0.651259,-0.157131,0.691846,-0.269296,-0.96554,0.16352,-0.00623,3354.92,-0.146026,-0.575315,0.254504,-0.76349,-0.77612,0.56874,-0.23908,2.05,2.75,2.9,3.13,2.9,2.87,2.68,3.72,3.23,3.8,3.94,3.92,3.86,3.75,3.8,3185,13.270833,59894.982833,146.450668,1030.546875,-218.925171,1.42643090703077,2.21323896787893,2.47770586732197,20.778534,797.263,152.39296,106.437332,1197.190552,0.132599,"CRUZINT"
217,16,38,14.985,3358.02,0.651322,-0.157121,0.69176,-0.269371,-0.97372,0.15817,-0.00364,3354.94,-0.150091,-0.580387,0.247294,-0.761229,-0.69013,0.56065,-0.21967,2.05,2.75,2.9,3.13,2.9,2.87,2.69,3.72,3.23,3.8,3.94,3.93,3.86,3.75,3.79,3186,13.275,59894.987,145.961166,1030.234619,-219.060272,1.42827185504104,2.21418559966307,2.47730665304829,20.771889,797.259399,152.403015,106.444489,1197.131714,-0.014902,"CRUZINT"
218,16,38,15.02,3358.04,0.651379,-0.157093,0.691668,-0.269487,-0.97372,0.15822,-0.00603,3354.96,-0.153161,-0.585142,0.241373,-0.758874,-0.91221,0.57035,-0.22879,2.05,2.75,2.9,3.13,2.89,2.87,2.7,3.72,3.23,3.8,3.96,3.93,3.85,3.75,3.79,3194,13.308333,59895.020333,141.965408,1028.054565,-220.275925,1.44372591207166,2.21994053398389,2.4758468972898,20.667343,797.244202,152.468597,106.573189,1196.87793,-0.63798,"CRUZINT"
219,16,38,15.025,3358.06,0.651478,-0.156981,0.691459,-0.269846,-0.96776,0.17034,-0.01198,3354.98,-0.155911,-0.589472,0.235656,-0.756757,-0.80776,0.54347,-0.22367,2.04,2.75,2.91,3.13,2.89,2.88,2.7,3.72,3.23,3.81,3.96,3.93,3.84,3.75,3.79,3196,13.316667,59895.028667,141.018616,1027.546631,-220.567078,1.44741207401389,2.22122854889441,2.47550998503138,20.630331,797.244263,152.476547,106.618073,1196.802612,-0.797415,"CRUZINT"
220,16,38,15.061,3358.08,0.6514,-0.157078,0.691397,-0.270139,-0.9634,0.17339,-0.01283,3355,-0.158542,-0.593887,0.230314,-0.754399,-0.77909,0.52558,-0.20898,2.04,2.75,2.91,3.14,2.89,2.88,2.71,3.73,3.23,3.82,3.96,3.93,3.84,3.75,3.79,3204,13.35,59895.062,137.38324,1025.83667,-221.769516,1.46135029676162,2.22515737469316,2.47491856660035,20.500782,797.243774,152.445633,106.74704,1196.551636,-1.344962,"CRUZINT"
221,16,38,15.066,3358.1,0.651398,-0.157179,0.691235,-0.2705,-0.96575,0.16947,-0.01179,3355.02,-0.161889,-0.599238,0.225238,-0.750982,-0.71573,0.5112,-0.19254,2.04,2.76,2.91,3.14,2.89,2.88,2.72,3.73,3.23,3.82,3.96,3.94,3.84,3.75,3.79,3205,13.354167,59895.066167,136.942627,1025.639404,-221.903976,1.46299712206105,2.22561248872887,2.47483145378018,20.483829,797.235291,152.437012,106.754189,1196.520264,-1.411139,"CRUZINT"
222,16,38,15.101,3358.12,0.651306,-0.157225,0.691224,-0.270721,-0.97116,0.1638,-0.00886,3355.04,-0.163736,-0.604345,0.221805,-0.747503,-0.93947,0.51889,-0.19789,2.03,2.76,2.92,3.14,2.89,2.88,2.73,3.73,3.23,3.82,3.96,3.94,3.83,3.75,3.79,3214,13.391667,59895.103667,133.6194,1024.639404,-223.827072,1.47586398250163,2.22593299105758,2.47717949953322,20.338884,797.256042,152.303848,106.914024,1196.289917,-2.025026,"CRUZINT"
223,16,38,15.107,3358.14,0.651225,-0.157237,0.691215,-0.270932,-0.9721,0.15989,-0.006,3355.06,-0.16528,-0.608778,0.21825,-0.744607,-0.83201,0.51447,-0.19076,2.03,2.76,2.92,3.14,2.89,2.88,2.73,3.74,3.23,3.83,3.97,3.94,3.83,3.75,3.79,3215,13.395833,59895.107833,133.166214,1024.420898,-223.946136,1.4776243452562,2.22648253644488,2.47697155552429,20.326147,797.25824,152.282761,106.944176,1196.262451,-2.092046,"CRUZINT"
224,16,38,15.141,3358.16,0.65131,-0.157264,0.69105,-0.271134,-0.96915,0.16272,-0.00478,3355.08,-0.167907,-0.613022,0.213176,-0.742002,-0.81955,0.51657,-0.17365,2.03,2.77,2.92,3.14,2.89,2.89,2.74,3.74,3.22,3.83,3.97,3.93,3.82,3.76,3.78,3223,13.429167,59895.141167,129.166229,1022.554993,-224.902176,1.49268636632377,2.23101136792871,2.47510280226293,20.234522,797.31134,152.073914,107.092499,1196.045044,-2.554971,"CRUZINT"
225,16,38,15.148,3358.18,0.651315,-0.157192,0.691029,-0.271217,-0.96882,0.16363,-0.00685,3355.1,-0.172247,-0.617758,0.206513,-0.738958,-0.74915,0.51962,-0.15642,2.02,2.77,2.92,3.14,2.89,2.89,2.75,3.75,3.22,3.83,3.98,3.94,3.82,3.76,3.78,3225,13.4375,59895.1495,128.012695,1021.532532,-225.342941,1.49713456554025,2.23323251053172,2.47357989695311,20.214622,797.312683,152.041245,107.137177,1195.990601,-2.659662,"CRUZINT"
226,16,38,15.183,3358.2,0.651438,-0.157034,0.690961,-0.271187,-0.97131,0.16262,-0.00406,3355.12,-0.175802,-0.621719,0.201015,-0.73631,-0.97491,0.52061,-0.17758,2.02,2.77,2.92,3.14,2.89,2.89,2.76,3.75,3.22,3.84,3.98,3.94,3.81,3.76,3.78,3234,13.475,59895.187,122.976997,1019.491089,-225.54718,1.51614212743223,2.24000285314071,2.46932179426086,20.158678,797.33374,151.955643,107.445892,1195.86792,-3.098848,"CRUZINT"
227,16,38,15.19,3358.22,0.651624,-0.156665,0.690925,-0.271044,-0.97388,0.16378,-0.00323,3355.14,-0.17922,-0.625415,0.195567,-0.733819,-0.84596,0.51081,-0.18072,2.02,2.77,2.92,3.14,2.9,2.9,2.77,3.75,3.22,3.84,3.98,3.94,3.81,3.76,3.78,3235,13.479167,59895.191167,122.48896,1019.322754,-225.617508,1.51798360658514,2.24048273093393,2.4690452486973,20.152609,797.335449,151.952301,107.475281,1195.869751,-3.138534,"CRUZINT"
228,16,38,15.224,3358.24,0.651831,-0.15629,0.690885,-0.270867,-0.97102,0.16724,-0.00584,3355.16,-0.182933,-0.628982,0.189799,-0.731365,-0.85927,0.49609,-0.17833,2.01,2.77,2.92,3.14,2.9,2.9,2.78,3.75,3.21,3.84,3.98,3.94,3.81,3.76,3.78,3243,13.5125,59895.2245,118.602203,1018.591553,-225.787048,1.53240866052423,2.24330261876848,2.46757563732381,20.148167,797.41803,151.904739,107.6772,1195.924194,-3.371097,"CRUZINT"
229,16,38,15.236,3358.26,0.652047,-0.155869,0.690798,-0.270809,-0.96561,0.17484,-0.01092,3355.18,-0.187043,-0.63252,0.184014,-0.728747,-0.74981,0.42282,-0.15193,2.02,2.77,2.92,3.14,2.9,2.91,2.78,3.76,3.21,3.85,3.98,3.94,3.81,3.76,3.78,3246,13.525,59895.237,116.639679,1018.264282,-225.458755,1.53950982687659,2.24536231779621,2.4660238206524,20.141621,797.459045,151.880692,107.738892,1195.975708,-3.418113,"CRUZINT"
230,16,38,15.264,3358.28,0.65219,-0.155645,0.690736,-0.270752,-0.96284,0.17838,-0.0102,3355.2,-0.190947,-0.636858,0.17682,-0.725731,-0.96406,0.44174,-0.12552,2.02,2.77,2.92,3.14,2.9,2.91,2.79,3.76,3.21,3.85,3.99,3.94,3.81,3.77,3.78,3253,13.554167,59895.266167,113.015686,1016.828308,-225.701889,1.55328204914107,2.24970074804137,2.46237444415168,20.095766,797.560486,151.838104,108.015266,1196.11792,-3.549077,"CRUZINT"
231,16,38,15.271,3358.3,0.652389,-0.155448,0.690565,-0.270824,-0.97201,0.17704,-0.01053,3355.22,-0.193611,-0.640724,0.169736,-0.72331,-0.92156,0.46878,-0.12376,2.03,2.77,2.92,3.14,2.91,2.92,2.8,3.76,3.21,3.86,3.99,3.94,3.81,3.76,3.78,3255,13.5625,59895.2745,111.492188,1016.606934,-225.33429,1.55899899387026,2.25136181862708,2.46088487946815,20.086739,797.580566,151.842453,108.126076,1196.148926,-3.592746,"CRUZINT"
232,16,38,15.302,3358.32,0.652572,-0.155293,0.690416,-0.270849,-0.97688,0.1697,-0.00842,3355.24,-0.196828,-0.644579,0.161571,-0.720883,-0.83472,0.49245,-0.12474,2.03,2.77,2.92,3.14,2.91,2.93,2.81,3.76,3.2,3.86,3.99,3.94,3.81,3.77,3.78,3262,13.591667,59895.303667,107.529846,1015.437866,-225.078323,1.57428359211355,2.25563975481081,2.45673681449618,20.03211,797.634155,151.959106,108.526405,1196.203125,-3.745373,"CRUZINT"
233,16,38,15.31,3358.34,0.652789,-0.15512,0.690274,-0.270788,-0.97388,0.16666,-0.01123,3355.26,-0.200375,-0.648329,0.154025,-0.718189,-0.84598,0.47621,-0.15588,2.04,2.78,2.93,3.14,2.91,2.93,2.81,3.77,3.21,3.86,4,3.94,3.81,3.77,3.77,3264,13.6,59895.312,106.557899,1015.153381,-225.006302,1.57792323419863,2.25665265572283,2.45568450980761,20.009604,797.64624,152.002213,108.595367,1196.215454,-3.774849,"CRUZINT"
234,16,38,15.34,3358.36,0.653131,-0.154949,0.689993,-0.270778,-0.96873,0.16748,-0.01538,3355.28,-0.204243,-0.652534,0.147167,-0.714722,-0.79337,0.44282,-0.17158,2.04,2.78,2.92,3.14,2.91,2.94,2.82,3.78,3.21,3.88,4,3.94,3.81,3.77,3.77,3271,13.629167,59895.341167,103.503571,1014.266602,-224.85051,1.58938907166636,2.2597258543811,2.45231096517547,19.939129,797.685974,152.195206,108.826675,1196.28125,-3.89915,"CRUZINT"
235,16,38,15.347,3358.38,0.65339,-0.15487,0.689744,-0.270833,-0.96504,0.17383,-0.0188,3355.3,-0.206711,-0.655912,0.141726,-0.712014,-1.00863,0.44509,-0.17686,2.04,2.77,2.92,3.14,2.92,2.94,2.83,3.77,3.21,3.88,4.01,3.94,3.82,3.77,3.77,3273,13.6375,59895.3495,102.693008,1014.055603,-224.81044,1.59238571334874,2.26047888773183,2.45143543565909,19.923742,797.703186,152.24678,108.875954,1196.296387,-3.946172,"CRUZINT"
236,16,38,15.381,3358.4,0.653635,-0.154881,0.689402,-0.271104,-0.96511,0.17957,-0.02058,3355.32,-0.208823,-0.658656,0.136453,-0.709891,-0.88274,0.4653,-0.14087,2.05,2.77,2.92,3.14,2.92,2.95,2.84,3.78,3.21,3.89,4.01,3.94,3.82,3.77,3.77,3281,13.670833,59895.382833,99.43866,1013.283142,-224.484222,1.60414620922212,2.26353709357045,2.44772095568496,19.895109,797.805176,152.385773,108.999107,1196.39917,-4.057582,"CRUZINT"
237,16,38,15.387,3358.42,0.653737,-0.155195,0.689066,-0.271535,-0.96354,0.17712,-0.01854,3355.34,-0.211032,-0.661159,0.131421,-0.707858,-0.87763,0.4646,-0.13208,2.05,2.77,2.92,3.14,2.92,2.95,2.84,3.78,3.21,3.89,4.02,3.94,3.82,3.78,3.77,3282,13.675,59895.387,99.04464,1013.187866,-224.430588,1.6055564248031,2.26394026551224,2.44722036325466,19.888071,797.827209,152.391541,109.010483,1196.416504,-4.067298,"CRUZINT"
238,16,38,15.421,3358.44,0.65378,-0.155594,0.688721,-0.272075,-0.96802,0.17282,-0.01711,3355.36,-0.213104,-0.663473,0.126721,-0.705926,-0.91225,0.45633,-0.13471,2.06,2.77,2.92,3.14,2.92,2.96,2.85,3.79,3.21,3.89,4.02,3.94,3.82,3.78,3.77,3291,13.7125,59895.4245,95.655899,1012.365601,-223.954132,1.61737259777376,2.26731100619527,2.44287634815443,19.868118,797.911499,152.40062,109.020988,1196.52478,-4.165627,"CRUZINT"
239,16,38,15.427,3358.46,0.653829,-0.155899,0.688423,-0.272538,-0.97468,0.16959,-0.01195,3355.38,-0.215804,-0.665522,0.121945,-0.704016,-0.88058,0.45297,-0.13246,2.06,2.77,2.92,3.13,2.93,2.96,2.86,3.79,3.2,3.9,4.02,3.94,3.82,3.78,3.77,3292,13.716667,59895.428667,94.708336,1011.795776,-223.781784,1.62061331463305,2.26914689761043,2.44072544711952,19.866308,797.916931,152.394516,109.016541,1196.538818,-4.177065,"CRUZINT"
240,16,38,15.475,3358.48,0.653916,-0.156096,0.688188,-0.272812,-0.97571,0.16253,-0.00909,3355.4,-0.218802,-0.667409,0.1163,-0.702257,-0.7021,0.44866,-0.1088,2.06,2.77,2.92,3.13,2.93,2.97,2.86,3.79,3.2,3.9,4.03,3.94,3.83,3.78,3.76,3304,13.766667,59895.478667,90.235664,1010.596863,-222.895706,1.63582662630877,2.27418335220246,2.43392817243143,19.810417,797.926575,152.3508,108.924446,1196.610352,-4.362395,"CRUZINT"
241,16,38,15.481,3358.5,0.654038,-0.156406,0.687918,-0.273021,-0.97137,0.15904,-0.01299,3355.42,-0.221925,-0.669187,0.111424,-0.700373,-1.08177,0.45801,-0.13607,2.06,2.77,2.92,3.13,2.93,2.97,2.86,3.8,3.21,3.91,4.03,3.94,3.83,3.78,3.77,3305,13.770833,59895.482833,89.949478,1010.540833,-222.845825,1.63681145793563,2.27444562124927,2.43353601771734,19.800804,797.928772,152.342712,108.921349,1196.616455,-4.380425,"CRUZINT"
242,16,38,15.501,3358.52,0.654048,-0.156551,0.687819,-0.273164,-0.96645,0.1616,-0.01599,3355.44,-0.224378,-0.670433,0.107872,-0.698955,-0.86815,0.45009,-0.12286,2.06,2.77,2.92,3.13,2.94,2.98,2.87,3.8,3.2,3.91,4.04,3.94,3.83,3.79,3.76,3310,13.791667,59895.503667,88.592834,1010.283447,-222.650543,1.64149790652492,2.27563127342886,2.43170589133664,19.745913,797.939575,152.298355,108.912308,1196.645996,-4.496141,"CRUZINT"
243,16,38,15.507,3358.54,0.653999,-0.156668,0.687795,-0.273273,-0.96418,0.16535,-0.01753,3355.46,-0.226703,-0.671604,0.104689,-0.697563,-0.87929,0.4361,-0.11182,2.07,2.77,2.92,3.13,2.94,2.98,2.88,3.8,3.2,3.91,4.04,3.94,3.83,3.79,3.76,3311,13.795833,59895.507833,88.33078,1010.238403,-222.6082,1.64241796494632,2.27582769581882,2.43137778451678,19.733587,797.945679,152.28952,108.914436,1196.645874,-4.513108,"CRUZINT"
244,16,38,15.557,3358.56,0.654075,-0.156707,0.687652,-0.27343,-0.96486,0.16779,-0.01852,3355.48,-0.228697,-0.67295,0.101851,-0.696034,-0.8852,0.43229,-0.09302,2.07,2.77,2.92,3.13,2.94,2.99,2.89,3.81,3.2,3.92,4.03,3.94,3.84,3.79,3.76,3323,13.845833,59895.557833,85.459427,1009.865051,-222.21875,1.65241105621393,2.27772882702302,2.42793822510753,19.561018,797.966919,152.154968,108.908173,1196.681641,-4.778167,"CRUZINT"
245,16,38,15.562,3358.58,0.653995,-0.156676,0.687726,-0.273453,-0.96903,0.16488,-0.0208,3355.5,-0.230511,-0.674445,0.09915,-0.694376,-0.90437,0.44052,-0.09091,2.08,2.77,2.91,3.13,2.95,2.99,2.89,3.81,3.2,3.91,4.03,3.94,3.84,3.79,3.75,3324,13.85,59895.562,85.236176,1009.831543,-222.195709,1.65317981082373,2.27784790881841,2.42769257862686,19.543928,797.964111,152.143738,108.906334,1196.682373,-4.791845,"CRUZINT"
246,16,38,15.581,3358.6,0.65413,-0.156679,0.687558,-0.273551,-0.97158,0.16415,-0.02068,3355.52,-0.232231,-0.675987,0.09648,-0.692678,-0.87934,0.43802,-0.09574,2.08,2.76,2.91,3.12,2.95,3,2.89,3.81,3.2,3.92,4.04,3.94,3.84,3.79,3.75,3329,13.870833,59895.582833,84.214363,1009.732117,-222.065506,1.65683121320286,2.27833377212512,2.42658948597511,19.474737,797.950867,152.110428,108.92997,1196.680664,-4.879426,"CRUZINT"
247,16,38,15.586,3358.62,0.654109,-0.15652,0.687629,-0.273515,-0.97178,0.1661,-0.02121,3355.54,-0.233911,-0.677387,0.094026,-0.69108,-0.87981,0.43928,-0.10113,2.08,2.76,2.91,3.12,2.95,3,2.9,3.82,3.2,3.92,4.04,3.94,3.85,3.8,3.75,3330,13.875,59895.587,84.006126,1009.722351,-222.049271,1.65753007241992,2.27838948063855,2.42641256371073,19.457346,797.947021,152.107101,108.921349,1196.678223,-4.902193,"CRUZINT"
248,16,38,15.622,3358.64,0.654101,-0.156329,0.687722,-0.273408,-0.96899,0.16792,-0.01915,3355.56,-0.235551,-0.678613,0.091786,-0.68962,-0.88243,0.43026,-0.10036,2.09,2.76,2.91,3.11,2.96,3,2.91,3.82,3.19,3.92,4.05,3.94,3.85,3.8,3.75,3339,13.9125,59895.6245,82.454041,1009.596924,-221.953903,1.66288398146537,2.27872654198207,2.42511471987846,19.340078,797.902161,152.100708,108.904427,1196.636475,-5.040175,"CRUZINT"
249,16,38,15.627,3358.66,0.654212,-0.156025,0.687715,-0.273333,-0.96512,0.17125,-0.01971,3355.58,-0.236877,-0.679729,0.089837,-0.688322,-0.89096,0.42786,-0.09345,2.1,2.75,2.9,3.1,2.96,3,2.91,3.82,3.19,3.92,4.05,3.94,3.85,3.8,3.74,3340,13.916667,59895.628667,82.303421,1009.59375,-221.950058,1.66340318473761,2.27870905701547,2.42503589886191,19.321426,797.898621,152.10498,108.901077,1196.619385,-5.062927,"CRUZINT"
250,16,38,15.663,3358.68,0.654195,-0.155816,0.687825,-0.273216,-0.96671,0.17139,-0.01779,3355.6,-0.23791,-0.680766,0.088278,-0.687142,-0.88152,0.41997,-0.08254,2.11,2.75,2.9,3.1,2.96,3,2.91,3.82,3.19,3.92,4.06,3.94,3.86,3.8,3.74,3349,13.954167,59895.666167,81.039368,1009.44519,-221.905319,1.66775820594246,2.278926062696,2.42399111095464,19.223434,797.861572,152.14061,108.889877,1196.557739,-5.169921,"CRUZINT"
251,16,38,15.668,3358.7,0.654228,-0.155548,0.687846,-0.273238,-0.96629,0.17386,-0.01831,3355.62,-0.238793,-0.681872,0.087028,-0.685897,-0.88025,0.42337,-0.07649,2.11,2.74,2.9,3.09,2.97,3,2.92,3.82,3.18,3.93,4.05,3.93,3.86,3.81,3.73,3350,13.958333,59895.670333,80.913979,1009.430664,-221.889938,1.6681927263621,2.27896269216895,2.42386988514306,19.212593,797.859314,152.140381,108.889877,1196.557739,-5.169921,"CRUZINT"
252,16,38,15.717,3358.72,0.654168,-0.155414,0.687958,-0.273175,-0.96732,0.17383,-0.01981,3355.64,-0.239742,-0.682922,0.085725,-0.684685,-0.88794,0.42711,-0.06869,2.12,2.74,2.9,3.09,2.98,3.01,2.92,3.83,3.18,3.92,4.06,3.93,3.86,3.81,3.74,3362,14.008333,59895.720333,79.349007,1009.366882,-221.704636,1.67373456470094,2.27905840240726,2.42266165325621,19.116796,797.831299,152.196533,108.901154,1196.450928,-5.287351,"CRUZINT"
253,16,38,15.722,3358.74,0.65413,-0.155281,0.688057,-0.273093,-0.96528,0.17435,-0.01646,3355.66,-0.240696,-0.683891,0.08429,-0.683559,-0.89591,0.43178,-0.0715,2.13,2.73,2.89,3.08,2.98,3.01,2.92,3.83,3.18,3.93,4.06,3.92,3.86,3.81,3.73,3363,14.0125,59895.7245,79.222176,1009.370178,-221.694122,1.67417684510065,2.27903436395344,2.42259420694096,19.110451,797.832214,152.198212,108.901154,1196.450928,-5.287351,"CRUZINT"
254,16,38,15.741,3358.76,0.654186,-0.155127,0.688039,-0.273092,-0.9695,0.17228,-0.01671,3355.68,-0.24154,-0.684853,0.083038,-0.682452,-0.89465,0.42705,-0.0753,2.13,2.73,2.89,3.08,2.99,3.01,2.93,3.84,3.18,3.93,4.06,3.92,3.86,3.81,3.73,3367,14.029167,59895.741167,78.780655,1009.352539,-221.647049,1.6757123776471,2.27904972066929,2.42225855402554,19.090429,797.833435,152.208527,108.901154,1196.450928,-5.287351,"CRUZINT"
255,16,38,15.746,3358.78,0.654159,-0.155061,0.688083,-0.273083,-0.97227,0.1716,-0.01559,3355.7,-0.242179,-0.685677,0.081933,-0.68153,-0.87828,0.42791,-0.06918,2.14,2.73,2.89,3.07,3,3.01,2.93,3.84,3.18,3.93,4.06,3.92,3.87,3.81,3.72,3369,14.0375,59895.7495,78.57666,1009.363892,-221.613052,1.67642982817625,2.2790320592032,2.42212489777116,19.083719,797.829651,152.211441,108.901154,1196.450928,-5.287351,"CRUZINT"
256,16,38,15.781,3358.8,0.654471,-0.154767,0.687766,-0.2733,-0.96882,0.17269,-0.01568,3355.72,-0.243981,-0.687261,0.079668,-0.679558,-0.68802,0.40367,-0.04449,2.14,2.73,2.89,3.07,3,3.01,2.93,3.84,3.18,3.93,4.06,3.92,3.87,3.81,3.73,3377,14.070833,59895.782833,77.859741,1009.307739,-221.501633,1.67892580444679,2.27920206796801,2.42142136984205,19.072933,797.819153,152.23735,108.901154,1196.450928,-5.287351,"CRUZINT"
257,16,38,15.786,3358.82,0.654468,-0.154752,0.687796,-0.27324,-0.96812,0.17226,-0.0174,3355.74,-0.244841,-0.688146,0.07878,-0.678456,-1.09724,0.42496,-0.07396,2.15,2.73,2.89,3.07,3.01,3.01,2.94,3.84,3.17,3.93,4.06,3.91,3.87,3.82,3.72,3378,14.075,59895.787,77.765335,1009.31073,-221.480042,1.67925896907471,2.27921211902379,2.42133914193318,19.071619,797.816589,152.236588,108.901154,1196.450928,-5.287351,"CRUZINT"
258,16,38,15.819,3358.84,0.65447,-0.1547,0.687845,-0.273143,-0.97028,0.17132,-0.01477,3355.76,-0.244793,-0.688807,0.078178,-0.677871,-0.87017,0.42526,-0.05751,2.15,2.72,2.89,3.06,3.02,3.01,2.94,3.84,3.17,3.93,4.06,3.91,3.88,3.82,3.72,3386,14.108333,59895.820333,77.057762,1009.246704,-221.36145,1.68172224716782,2.27941583842295,2.42059550500526,19.066177,797.804138,152.243942,108.901154,1196.450928,-5.287351,"CRUZINT"
259,16,38,15.824,3358.86,0.654633,-0.154714,0.687673,-0.273177,-0.97002,0.17041,-0.01521,3355.78,-0.244856,-0.689548,0.077612,-0.67716,-0.87732,0.42313,-0.05781,2.16,2.72,2.89,3.05,3.02,3.01,2.94,3.84,3.17,3.94,4.06,3.91,3.88,3.82,3.72,3387,14.1125,59895.8245,76.981339,1009.229553,-221.346268,1.68198637288329,2.27946984697119,2.42048301600091,19.05794,797.806763,152.241821,108.901154,1196.450928,-5.287351,"CRUZINT"
260,16,38,15.86,3358.88,0.654613,-0.154739,0.687711,-0.273115,-0.96659,0.17214,-0.01606,3355.8,-0.244961,-0.690205,0.076777,-0.676547,-0.88464,0.4209,-0.04987,2.16,2.71,2.88,3.04,3.02,3.01,2.95,3.84,3.17,3.94,4.06,3.91,3.88,3.82,3.72,3396,14.15,59895.862,76.296684,1009.001587,-221.172745,1.68455801462404,2.27989036144572,2.41948568193761,19.043154,797.801025,152.24791,108.947754,1196.292725,-5.328778,"CRUZINT"
261,16,38,15.865,3358.9,0.654782,-0.154814,0.687503,-0.27319,-0.9699,0.16917,-0.01662,3355.82,-0.245023,-0.690873,0.075838,-0.675949,-0.88817,0.41954,-0.05605,2.17,2.71,2.88,3.03,3.03,3.01,2.95,3.85,3.16,3.94,4.06,3.91,3.88,3.82,3.72,3397,14.154167,59895.866167,76.216583,1008.975159,-221.154877,1.68484097208558,2.27997101921321,2.41934090144987,19.042782,797.805542,152.2556,108.948647,1196.284668,-5.337557,"CRUZINT"
262,16,38,15.902,3358.92,0.654748,-0.154854,0.687522,-0.273201,-0.97074,0.16793,-0.01744,3355.84,-0.24508,-0.691375,0.074911,-0.675518,-0.89083,0.41649,-0.05675,2.18,2.7,2.88,3.02,3.03,3.01,2.95,3.85,3.17,3.94,4.06,3.91,3.88,3.82,3.71,3406,14.191667,59895.903667,75.572495,1008.654602,-220.912735,1.68724948777471,2.28114221312679,2.41761948897733,19.020746,797.807129,152.249756,108.994164,1196.227661,-5.413839,"CRUZINT"
263,16,38,15.907,3358.94,0.654705,-0.154921,0.687536,-0.27323,-0.97194,0.16959,-0.01747,3355.86,-0.245094,-0.69173,0.073847,-0.675267,-0.89069,0.41778,-0.05075,2.19,2.7,2.88,3.02,3.03,3.02,2.95,3.85,3.16,3.94,4.05,3.91,3.88,3.82,3.72,3407,14.195833,59895.907833,75.505211,1008.616821,-220.879257,1.68750361084507,2.28130097804055,2.41740215733269,19.01687,797.804016,152.247238,108.999283,1196.223389,-5.42305,"CRUZINT"
264,16,38,15.94,3358.96,0.65487,-0.154803,0.687335,-0.273409,-0.96985,0.17106,-0.01821,3355.88,-0.245098,-0.69214,0.072696,-0.67497,-0.89825,0.41748,-0.04124,2.19,2.69,2.87,3.01,3.03,3.02,2.96,3.85,3.16,3.94,4.06,3.91,3.88,3.82,3.72,3415,14.229167,59895.941167,74.924004,1008.298035,-220.576706,1.68989000473654,2.28266509098088,2.41548160270085,19.017714,797.814514,152.214996,109.101616,1196.212158,-5.47512,"CRUZINT"
265,16,38,15.945,3358.98,0.654849,-0.15485,0.687341,-0.273416,-0.96798,0.17093,-0.01936,3355.9,-0.245022,-0.692687,0.071163,-0.6746,-0.89268,0.41732,-0.03408,2.21,2.69,2.87,3,3.03,3.02,2.96,3.85,3.16,3.94,4.06,3.91,3.89,3.82,3.71,3416,14.233333,59895.945333,74.843239,1008.250122,-220.529755,1.69023994600758,2.28289462609151,2.41516967394807,19.026115,797.80957,152.204254,109.121201,1196.216431,-5.485242,"CRUZINT"
266,16,38,15.98,3359,0.655094,-0.154673,0.687089,-0.273563,-0.96877,0.17031,-0.01807,3355.92,-0.244879,-0.693552,0.06933,-0.673953,-0.88,0.41117,-0.03517,2.21,2.68,2.87,3,3.04,3.02,2.96,3.86,3.16,3.94,4.06,3.91,3.89,3.83,3.72,3425,14.270833,59895.982833,74.201126,1007.7995,-220.14035,1.69326567661317,2.28480355494138,2.41253836979676,19.030331,797.837341,152.121719,109.353027,1196.234253,-5.538861,"CRUZINT"
267,16,38,15.985,3359.02,0.655143,-0.154634,0.687068,-0.273521,-0.96985,0.16943,-0.01535,3355.94,-0.244905,-0.694537,0.067082,-0.673157,-0.83313,0.39844,-0.03052,2.22,2.68,2.87,2.99,3.05,3.02,2.97,3.85,3.15,3.94,4.06,3.91,3.89,3.82,3.72,3426,14.275,59895.987,74.137009,1007.74646,-220.093002,1.69360755959793,2.28502527966218,2.41223395506309,19.03433,797.841125,152.122116,109.386673,1196.230103,-5.549103,"CRUZINT"
268,16,38,16.038,3359.04,0.655203,-0.15458,0.687049,-0.273456,-0.97001,0.16882,-0.01563,3355.96,-0.245322,-0.695808,0.06471,-0.671923,-0.96073,0.4003,-0.04944,2.23,2.68,2.86,2.99,3.05,3.02,2.97,3.85,3.15,3.94,4.05,3.91,3.89,3.82,3.72,3439,14.329167,59896.041167,73.58287,1006.955383,-219.552231,1.69661955016146,2.28780674806945,2.40871763271264,19.104998,797.871216,152.172806,109.694267,1196.052124,-5.673647,"CRUZINT"
269,16,38,16.043,3359.06,0.655284,-0.154609,0.686991,-0.273391,-0.96953,0.16835,-0.01583,3355.98,-0.244797,-0.696295,0.063568,-0.671719,-0.88752,0.41268,-0.05321,2.23,2.67,2.86,2.98,3.05,3.02,2.97,3.86,3.15,3.94,4.06,3.91,3.89,3.83,3.72,3440,14.333333,59896.045333,73.56292,1006.897827,-219.526688,1.69675103670711,2.28797235608913,2.40851972402638,19.113966,797.867065,152.186111,109.71228,1196.032715,-5.683689,"CRUZINT"
270,16,38,16.06,3359.08,0.655369,-0.154487,0.686977,-0.273289,-0.97191,0.17039,-0.01787,3356,-0.244142,-0.696618,0.062805,-0.671695,-0.89343,0.41936,-0.04946,2.23,2.67,2.86,2.97,3.06,3.03,2.97,3.86,3.14,3.94,4.04,3.91,3.9,3.83,3.72,3444,14.35,59896.062,73.49147,1006.67749,-219.425858,1.69732796521452,2.28864966345727,2.40770011143739,19.137695,797.88147,152.238098,109.807495,1195.969482,-5.729177,"CRUZINT"
271,16,38,16.065,3359.1,0.655603,-0.154038,0.686852,-0.273296,-0.96936,0.17575,-0.01971,3356.02,-0.243641,-0.696999,0.062285,-0.67153,-0.89577,0.42181,-0.04515,2.23,2.67,2.86,2.97,3.06,3.03,2.98,3.86,3.14,3.94,4.05,3.91,3.9,3.83,3.72,3445,14.354167,59896.066167,73.47773,1006.617188,-219.39447,1.69745374078554,2.28883634561886,2.40748247070557,19.150606,797.878296,152.245987,109.831314,1195.958252,-5.730027,"CRUZINT"
272,16,38,16.101,3359.12,0.655652,-0.154018,0.686838,-0.273225,-0.96484,0.17946,-0.02065,3356.04,-0.243317,-0.697344,0.061769,-0.671336,-0.90152,0.4176,-0.0425,2.24,2.66,2.85,2.97,3.07,3.03,2.98,3.86,3.14,3.94,4.05,3.91,3.9,3.83,3.72,3454,14.391667,59896.103667,73.41333,1006.262451,-219.192703,1.69853415202278,2.28994642225055,2.40610333480262,19.238728,797.922241,152.343765,110.079491,1195.865479,-5.770172,"CRUZINT"
273,16,38,16.106,3359.14,0.655692,-0.154042,0.686805,-0.2732,-0.96355,0.17746,-0.02054,3356.06,-0.243115,-0.697478,0.061202,-0.671323,-0.90777,0.41778,-0.03826,2.24,2.66,2.85,2.97,3.07,3.03,2.98,3.86,3.14,3.94,4.05,3.91,3.9,3.83,3.72,3455,14.395833,59896.107833,73.407722,1006.243347,-219.175507,1.69865200512201,2.2899995790573,2.40602043599124,19.250631,797.928345,152.348068,110.10817,1195.861206,-5.765249,"CRUZINT"
274,16,38,16.14,3359.16,0.655876,-0.15394,0.686614,-0.273294,-0.96748,0.17369,-0.02124,3356.08,-0.243013,-0.697736,0.060807,-0.671127,-0.90411,0.42102,-0.03803,2.24,2.66,2.85,2.97,3.07,3.03,2.98,3.86,3.14,3.94,4.05,3.91,3.9,3.83,3.72,3463,14.429167,59896.141167,73.449905,1006.16156,-219.078857,1.69946923899303,2.29030267596682,2.40551012132452,19.355177,797.987061,152.352249,110.382965,1195.841553,-5.771113,"CRUZINT"
275,16,38,16.145,3359.18,0.65589,-0.154033,0.686561,-0.273343,-0.97205,0.17165,-0.01882,3356.1,-0.242962,-0.697747,0.060497,-0.671162,-0.90529,0.42055,-0.03857,2.25,2.65,2.84,2.97,3.07,3.03,2.98,3.86,3.14,3.94,4.05,3.91,3.9,3.83,3.72,3464,14.433333,59896.145333,73.464066,1006.163452,-219.079239,1.69956991596992,2.29029324799544,2.40549375444604,19.372107,798.000793,152.345581,110.426392,1195.844116,-5.771608,"CRUZINT"
276,16,38,16.179,3359.2,0.656016,-0.154016,0.686407,-0.273438,-0.97171,0.17106,-0.01772,3356.12,-0.242948,-0.697974,0.060529,-0.670928,-0.902,0.41757,-0.04163,2.25,2.65,2.83,2.97,3.08,3.03,2.98,3.86,3.13,3.94,4.05,3.91,3.9,3.83,3.72,3473,14.470833,59896.182833,73.760361,1006.302002,-219.164291,1.69975183952941,2.28966002041201,2.40607793834534,19.481705,798.069946,152.310059,110.773598,1195.840332,-5.749671,"CRUZINT"
277,16,38,16.184,3359.22,0.656077,-0.154021,0.686373,-0.273372,-0.97117,0.16811,-0.01533,3356.14,-0.242858,-0.698148,0.060898,-0.670746,-0.90424,0.41227,-0.04775,2.25,2.65,2.83,2.97,3.08,3.03,2.99,3.86,3.13,3.94,4.05,3.91,3.9,3.83,3.72,3474,14.475,59896.187,73.815651,1006.327881,-219.177277,1.69970643160919,2.28954547274034,2.40620367823858,19.493391,798.058594,152.29454,110.814575,1195.834473,-5.746176,"CRUZINT"
278,16,38,16.22,3359.24,0.656169,-0.15398,0.686348,-0.273237,-0.97055,0.16469,-0.01667,3356.16,-0.242614,-0.698072,0.061274,-0.67088,-0.89896,0.40836,-0.04625,2.26,2.64,2.82,2.97,3.08,3.04,2.99,3.86,3.13,3.94,4.04,3.91,3.9,3.83,3.72,3482,14.508333,59896.220333,74.332848,1006.516724,-219.34259,1.69929102631928,2.28869147868004,2.4071606241022,19.592299,798.064514,152.256027,111.210991,1195.826904,-5.739628,"CRUZINT"
279,16,38,16.226,3359.26,0.656286,-0.154017,0.686283,-0.273099,-0.97028,0.1653,-0.01723,3356.18,-0.242313,-0.698201,0.061864,-0.670801,-0.89743,0.41002,-0.04241,2.27,2.63,2.82,2.97,3.08,3.04,2.99,3.86,3.13,3.94,4.04,3.91,3.9,3.83,3.72,3484,14.516667,59896.228667,74.485527,1006.56189,-219.401398,1.69912050502173,2.2884630087569,2.40743173603035,19.609146,798.079956,152.241943,111.315872,1195.827026,-5.741092,"CRUZINT"
280,16,38,16.261,3359.28,0.656375,-0.153968,0.686252,-0.272993,-0.96899,0.16872,-0.02196,3356.2,-0.241964,-0.698132,0.062512,-0.670938,-0.89758,0.40981,-0.04028,2.27,2.63,2.81,2.97,3.09,3.04,2.99,3.86,3.13,3.93,4.04,3.91,3.9,3.83,3.72,3492,14.55,59896.262,75.200577,1006.747498,-219.676895,1.69799813648557,2.2875640898268,2.4086123307274,19.681557,798.135925,152.1427,111.712959,1195.8302,-5.774917,"CRUZINT"
281,16,38,16.266,3359.3,0.656584,-0.153997,0.686036,-0.273014,-0.96516,0.16867,-0.02232,3356.22,-0.241637,-0.69809,0.06337,-0.671018,-0.89793,0.40963,-0.03768,2.28,2.62,2.8,2.97,3.09,3.04,2.99,3.86,3.13,3.93,4.03,3.91,3.9,3.83,3.72,3493,14.554167,59896.266167,75.302185,1006.77179,-219.716721,1.69781584397175,2.28745265746817,2.40876942345018,19.684986,798.148743,152.126678,111.76342,1195.834961,-5.779231,"CRUZINT"
282,16,38,16.301,3359.32,0.656651,-0.153939,0.686013,-0.272943,-0.96767,0.16636,-0.02291,3356.24,-0.241179,-0.698039,0.064482,-0.671131,-0.89973,0.40452,-0.03615,2.28,2.62,2.8,2.97,3.09,3.04,2.99,3.86,3.13,3.93,4.04,3.91,3.9,3.83,3.72,3502,14.591667,59896.303667,76.292252,1006.918213,-220.036865,1.69579750974298,2.28667752277369,2.41004768842961,19.752224,798.190186,152.037384,112.182175,1195.839478,-5.823521,"CRUZINT"
283,16,38,16.306,3359.34,0.656709,-0.153897,0.685973,-0.272929,-0.97464,0.1671,-0.02091,3356.26,-0.240524,-0.697894,0.065691,-0.6714,-0.90086,0.40342,-0.03685,2.28,2.61,2.79,2.97,3.1,3.04,2.99,3.86,3.13,3.93,4.04,3.9,3.9,3.83,3.72,3503,14.595833,59896.307833,76.406075,1006.951477,-220.069443,1.69550541413571,2.28655482321536,2.41024251857252,19.761368,798.19519,152.029449,112.211685,1195.841431,-5.823922,"CRUZINT"
284,16,38,16.341,3359.36,0.656831,-0.153884,0.685869,-0.272904,-0.97327,0.16889,-0.02119,3356.28,-0.2399,-0.697749,0.066841,-0.67166,-0.90144,0.40581,-0.03533,2.28,2.61,2.79,2.98,3.1,3.04,2.99,3.86,3.13,3.93,4.04,3.91,3.9,3.83,3.72,3511,14.629167,59896.341167,77.300568,1007.140869,-220.307175,1.69369836699191,2.28587926195769,2.41136102511256,19.814325,798.209778,151.954651,112.585808,1195.861694,-5.872138,"CRUZINT"
285,16,38,16.346,3359.38,0.656922,-0.153804,0.685845,-0.27279,-0.9696,0.16847,-0.0229,3356.3,-0.23936,-0.697544,0.06764,-0.671985,-0.89565,0.40784,-0.03313,2.29,2.6,2.78,2.98,3.1,3.04,2.99,3.86,3.13,3.93,4.03,3.91,3.91,3.83,3.72,3513,14.6375,59896.3495,77.52166,1007.167603,-220.360397,1.6932650479622,2.2857602636199,2.41158547715287,19.834476,798.212585,151.937271,112.683319,1195.863647,-5.881044,"CRUZINT"
286,16,38,16.382,3359.4,0.657042,-0.153605,0.685796,-0.272735,-0.96676,0.16882,-0.02391,3356.32,-0.23894,-0.697316,0.068602,-0.672274,-0.89376,0.40529,-0.03456,2.29,2.6,2.77,2.98,3.1,3.04,2.99,3.86,3.13,3.93,4.03,3.91,3.9,3.83,3.72,3521,14.670833,59896.382833,78.538605,1007.295349,-220.506683,1.6909124095863,2.28518954295022,2.41272274687951,19.858555,798.231323,151.871979,113.022125,1195.834717,-5.846297,"CRUZINT"
287,16,38,16.387,3359.42,0.657073,-0.153616,0.68579,-0.27267,-0.96561,0.17085,-0.02295,3356.34,-0.238445,-0.696979,0.069852,-0.67267,-0.8991,0.40196,-0.03601,2.29,2.59,2.76,2.98,3.11,3.04,2.99,3.86,3.13,3.94,4.03,3.91,3.9,3.83,3.72,3522,14.675,59896.387,78.679482,1007.304077,-220.529907,1.69055153079209,2.28512927809214,2.41286907789226,19.861366,798.23468,151.871399,113.059647,1195.828979,-5.843029,"CRUZINT"
