Sample,Hour,Minute,Sec,Stamp,Quat1,Quat2,Quat3,Quat4,AccX,AccY,AccZ,Stamp2,Quat2_1,Quat2_2,Quat2_3,Quat2_4,Acc2_X,Acc2_Y,Acc2_Z,A0,A1,A2,A3,A4,A5,A6,A7,A8,A9,A10,A11,A12,A13,A14,Frame,Time,realTime,BrazoX,BrazoY,BrazoZ,angBrazoX,angBrazoY,angBrazoZ,EspaldaX,EspaldaY,EspaldaZ,refX,refY,refZ,type
2,17,0,38.792,4701.78,0.620438,-0.173769,0.636759,-0.423555,-0.91985,0.32544,-0.13445,4698.6,0.694511,-0.247239,0.499308,-0.455213,-0.90545,0.10366,-0.38989,2.17,2.58,2.74,2.79,3.17,3.03,2.99,3.83,3.2,3.91,3.96,3.88,3.75,3.82,3.72,1920,8,61238.796,295.197449,969.189819,-166.736191,1.16776800025104,2.45975568003516,2.08668433387329,29.298986,814.489685,155.348602,188.703781,1180.006226,-32.790901,"CRUZEXT"
3,17,0,38.803,4701.8,0.620416,-0.173879,0.636756,-0.423546,-0.91994,0.32143,-0.13403,4698.62,0.694448,-0.247112,0.499395,-0.455283,-0.90144,0.10407,-0.38926,2.16,2.58,2.74,2.79,3.17,3.03,2.99,3.83,3.2,3.91,3.96,3.88,3.75,3.81,3.72,1922,8.008333,61238.804333,295.159698,969.182678,-166.71759,1.16768123964716,2.45971590455804,2.08665673796317,29.283257,814.464172,155.357956,188.644653,1179.991699,-32.779186,"CRUZEXT"
4,17,0,38.811,4701.82,0.620386,-0.173981,0.636777,-0.423517,-0.92031,0.32,-0.13764,4698.64,0.694408,-0.24695,0.499509,-0.455306,-0.90179,0.10379,-0.38897,2.16,2.58,2.73,2.79,3.17,3.03,2.99,3.83,3.2,3.91,3.97,3.88,3.75,3.82,3.71,1924,8.016667,61238.812667,295.120422,969.175171,-166.698212,1.16763761328982,2.45975255966052,2.08657824560581,29.269033,814.457703,155.368576,188.601074,1179.977417,-32.786636,"CRUZEXT"
5,17,0,38.827,4701.84,0.62034,-0.174063,0.636802,-0.423513,-0.92034,0.31893,-0.13885,4698.66,0.694479,-0.246799,0.499534,-0.455252,-0.89844,0.10202,-0.3881,2.16,2.58,2.73,2.79,3.17,3.03,2.99,3.83,3.2,3.91,3.97,3.88,3.75,3.82,3.72,1928,8.033333,61238.829333,295.036743,969.16748,-166.655579,1.16745787586055,2.4597734900868,2.08640315547721,29.247438,814.419495,155.383408,188.477158,1179.964111,-32.791199,"CRUZEXT"
6,17,0,38.832,4701.86,0.620395,-0.17412,0.636703,-0.423558,-0.9217,0.31794,-0.14001,4698.68,0.694555,-0.246611,0.499564,-0.455205,-0.89844,0.10364,-0.38789,2.16,2.58,2.73,2.79,3.17,3.03,2.99,3.83,3.2,3.91,3.96,3.88,3.75,3.82,3.72,1929,8.0375,61238.8335,295.013763,969.164368,-166.649933,1.16741112218323,2.45973947357675,2.08640261016686,29.240767,814.409546,155.390533,188.436691,1179.966675,-32.778381,"CRUZEXT"
7,17,0,38.838,4701.88,0.620336,-0.174166,0.636771,-0.423524,-0.92184,0.31731,-0.13904,4698.7,0.694671,-0.246475,0.499564,-0.455102,-0.89872,0.10582,-0.38759,2.16,2.58,2.73,2.79,3.17,3.03,2.99,3.83,3.2,3.91,3.97,3.88,3.75,3.82,3.72,1931,8.045833,61238.841833,294.974213,969.166687,-166.631607,1.16740578469746,2.45974855675606,2.08638775662948,29.224621,814.397705,155.39975,188.404617,1179.953125,-32.774628,"CRUZEXT"
8,17,0,38.843,4701.9,0.620303,-0.174157,0.636858,-0.423444,-0.922,0.31627,-0.13869,4698.72,0.694748,-0.246326,0.499602,-0.455024,-0.90062,0.10798,-0.38869,2.16,2.58,2.73,2.79,3.17,3.03,2.99,3.83,3.2,3.91,3.96,3.88,3.75,3.82,3.72,1932,8.05,61238.846,294.956757,969.159729,-166.625427,1.16739264705317,2.45973493490681,2.08639223780607,29.22583,814.38562,155.407516,188.380295,1179.950928,-32.762886,"CRUZEXT"
9,17,0,38.851,4701.92,0.620268,-0.174113,0.636974,-0.423339,-0.92133,0.32017,-0.13836,4698.74,0.694839,-0.246138,0.499628,-0.454957,-0.90159,0.10742,-0.38757,2.16,2.58,2.73,2.79,3.17,3.03,2.99,3.83,3.2,3.91,3.96,3.88,3.75,3.81,3.72,1934,8.058333,61238.854333,294.919739,969.161987,-166.607193,1.16735303141498,2.45972522278786,2.08636997159947,29.211994,814.376282,155.420563,188.337143,1179.944092,-32.754631,"CRUZEXT"
10,17,0,38.86,4701.94,0.620241,-0.174044,0.637112,-0.4232,-0.92034,0.32162,-0.13499,4698.76,0.694953,-0.245941,0.49958,-0.454943,-0.90114,0.10882,-0.3894,2.16,2.58,2.73,2.79,3.17,3.03,2.99,3.83,3.2,3.91,3.97,3.88,3.75,3.82,3.72,1936,8.066667,61238.862667,294.880798,969.153931,-166.587616,1.16731266632994,2.45973757810417,2.08632189685093,29.209345,814.366638,155.433792,188.288452,1179.9375,-32.746822,"CRUZEXT"
11,17,0,38.865,4701.96,0.620189,-0.173924,0.63725,-0.423118,-0.91957,0.32457,-0.13361,4698.78,0.694992,-0.245811,0.49954,-0.454998,-0.90458,0.10828,-0.38993,2.17,2.58,2.74,2.79,3.17,3.03,2.99,3.83,3.2,3.91,3.96,3.88,3.75,3.81,3.72,1937,8.070833,61238.866833,294.859619,969.157898,-166.578125,1.16733493984988,2.45975437920218,2.08632148111151,29.208002,814.360596,155.44339,188.274689,1179.940674,-32.739758,"CRUZEXT"
12,17,0,38.87,4701.98,0.620151,-0.173891,0.637353,-0.42303,-0.92055,0.32671,-0.1345,4698.8,0.695048,-0.24569,0.499502,-0.455019,-0.90524,0.10833,-0.38928,2.16,2.58,2.73,2.79,3.17,3.03,2.99,3.82,3.2,3.91,3.97,3.88,3.75,3.82,3.72,1938,8.075,61238.871,294.845093,969.158325,-166.570755,1.16728820009813,2.45971308383421,2.08632924236626,29.207855,814.349609,155.446991,188.246185,1179.938599,-32.727657,"CRUZEXT"
13,17,0,38.875,4702,0.620045,-0.173798,0.637487,-0.423024,-0.92256,0.32828,-0.13377,4698.82,0.695061,-0.245544,0.499488,-0.455093,-0.90252,0.10941,-0.38724,2.17,2.58,2.73,2.79,3.17,3.03,2.99,3.83,3.2,3.91,3.97,3.88,3.75,3.81,3.72,1939,8.079167,61238.875167,294.830322,969.160095,-166.562927,1.16732367210914,2.45973162759569,2.08633795049982,29.205599,814.346924,155.456268,188.245178,1179.933838,-32.723934,"CRUZEXT"
14,17,0,38.886,4702.02,0.619958,-0.173884,0.637547,-0.423026,-0.92196,0.32577,-0.13095,4698.84,0.695061,-0.245442,0.499508,-0.455126,-0.90198,0.10971,-0.38944,2.17,2.58,2.74,2.79,3.17,3.03,2.99,3.83,3.2,3.91,3.96,3.88,3.75,3.81,3.72,1942,8.091667,61238.887667,294.779724,969.163208,-166.542725,1.16730424356458,2.45971405435848,2.08634164196874,29.214516,814.336365,155.469452,188.190277,1179.932861,-32.703548,"CRUZEXT"
15,17,0,38.907,4702.04,0.619868,-0.173934,0.637632,-0.423009,-0.92113,0.32317,-0.13255,4698.86,0.695023,-0.245472,0.499516,-0.45516,-0.90193,0.11103,-0.38878,2.17,2.58,2.74,2.79,3.17,3.03,2.99,3.82,3.2,3.91,3.97,3.88,3.75,3.81,3.72,1947,8.1125,61238.9085,294.701324,969.156982,-166.52243,1.16746234351399,2.45978553991253,2.08639317017883,29.210491,814.32605,155.492752,188.160187,1179.921387,-32.682182,"CRUZEXT"
16,17,0,38.914,4702.06,0.619775,-0.173943,0.637739,-0.42298,-0.92095,0.32403,-0.13095,4698.88,0.694995,-0.245458,0.499513,-0.455213,-0.89832,0.11361,-0.38552,2.17,2.58,2.74,2.79,3.17,3.03,2.99,3.83,3.2,3.91,3.96,3.88,3.75,3.82,3.72,1949,8.120833,61238.916833,294.672455,969.150269,-166.528946,1.16755338185094,2.45980424302773,2.08644844153328,29.216894,814.319153,155.499054,188.151779,1179.922363,-32.672794,"CRUZEXT"
17,17,0,38.947,4702.08,0.619693,-0.174014,0.637825,-0.42294,-0.92205,0.32537,-0.12974,4698.9,0.694936,-0.245419,0.499532,-0.455303,-0.89802,0.11417,-0.38602,2.17,2.58,2.74,2.79,3.17,3.03,2.99,3.83,3.2,3.91,3.97,3.88,3.75,3.81,3.72,1957,8.154167,61238.950167,294.596832,969.119263,-166.525452,1.16772262633707,2.45980272099718,2.0865925372512,29.215204,814.302429,155.532928,188.11261,1179.902588,-32.627972,"CRUZEXT"
18,17,0,38.952,4702.1,0.619622,-0.174026,0.6379,-0.422926,-0.92317,0.32509,-0.13112,4698.92,0.694846,-0.245501,0.49955,-0.455377,-0.89964,0.1123,-0.39104,2.17,2.58,2.73,2.79,3.17,3.03,2.99,3.83,3.2,3.91,3.96,3.88,3.75,3.81,3.72,1958,8.158333,61238.954333,294.600037,969.12262,-166.524139,1.16770245248493,2.45977957160312,2.08660197183759,29.211679,814.305664,155.53154,188.112076,1179.899414,-32.626064,"CRUZEXT"
19,17,0,38.986,4702.12,0.619574,-0.17412,0.637916,-0.422935,-0.92261,0.3246,-0.13173,4698.94,0.69481,-0.245471,0.49961,-0.455383,-0.89851,0.10955,-0.39087,2.17,2.58,2.73,2.79,3.17,3.03,2.99,3.82,3.2,3.91,3.96,3.88,3.75,3.82,3.72,1966,8.191667,61238.987667,294.611786,969.090454,-166.508896,1.1677333802062,2.45985269417039,2.08654458975315,29.220514,814.285522,155.531281,188.137466,1179.868042,-32.631813,"CRUZEXT"
20,17,0,38.992,4702.14,0.619557,-0.1742,0.637912,-0.422933,-0.92278,0.32275,-0.13126,4698.96,0.694914,-0.245264,0.499621,-0.455323,-0.89832,0.11142,-0.3885,2.17,2.58,2.73,2.79,3.17,3.03,2.99,3.83,3.2,3.91,3.97,3.88,3.75,3.82,3.71,1968,8.2,61238.996,294.614197,969.075134,-166.516281,1.16773495403725,2.45981420079319,2.08658981231863,29.22296,814.279541,155.52861,188.135803,1179.85498,-32.622902,"CRUZEXT"
21,17,0,39.026,4702.16,0.619562,-0.17428,0.637845,-0.422992,-0.92276,0.32179,-0.13318,4698.98,0.694907,-0.245218,0.499664,-0.455311,-0.9014,0.11248,-0.39069,2.17,2.58,2.73,2.79,3.17,3.03,2.99,3.83,3.2,3.91,3.96,3.88,3.75,3.81,3.72,1976,8.233333,61239.029333,294.655273,969.02887,-166.521164,1.16765195616874,2.45989162274716,2.08643170568544,29.227654,814.26886,155.511139,188.150757,1179.832642,-32.65834,"CRUZEXT"
22,17,0,39.031,4702.18,0.619525,-0.174361,0.637838,-0.423024,-0.92301,0.32127,-0.13121,4699,0.695142,-0.245142,0.499483,-0.455192,-0.90138,0.11262,-0.39202,2.17,2.58,2.74,2.79,3.17,3.03,2.99,3.83,3.2,3.91,3.97,3.88,3.75,3.82,3.72,1977,8.2375,61239.0335,294.661865,969.026794,-166.517059,1.16760994104156,2.45988969232702,2.08639856162666,29.227268,814.267639,155.50618,188.148849,1179.826294,-32.664566,"CRUZEXT"
23,17,0,39.064,4702.2,0.619527,-0.174416,0.637824,-0.42302,-0.9216,0.32164,-0.13267,4699.02,0.695153,-0.245076,0.499458,-0.455239,-0.90257,0.10086,-0.39172,2.17,2.58,2.74,2.79,3.17,3.03,2.99,3.83,3.2,3.91,3.97,3.88,3.75,3.82,3.72,1985,8.270833,61239.066833,294.736481,969.015564,-166.49144,1.16729279743764,2.45989889688811,2.08612111703636,29.228956,814.274536,155.461105,188.144272,1179.81665,-32.704472,"CRUZEXT"
24,17,0,39.087,4702.22,0.619525,-0.174452,0.637822,-0.423012,-0.92215,0.32186,-0.13121,4699.04,0.695219,-0.244872,0.499512,-0.455188,-0.90295,0.1051,-0.38926,2.18,2.57,2.74,2.79,3.17,3.03,2.99,3.83,3.2,3.91,3.97,3.88,3.75,3.82,3.72,1990,8.291667,61239.087667,294.737762,968.999512,-166.484238,1.16722041870917,2.45992356050116,2.08603201602728,29.237976,814.265625,155.449936,188.136993,1179.786011,-32.730251,"CRUZEXT"
25,17,0,39.093,4702.24,0.619522,-0.174493,0.637833,-0.422981,-0.9232,0.32249,-0.13201,4699.06,0.695209,-0.24477,0.499633,-0.455126,-0.90278,0.111,-0.38213,2.18,2.58,2.73,2.79,3.17,3.03,2.99,3.83,3.2,3.91,3.96,3.88,3.75,3.81,3.72,1992,8.3,61239.096,294.72641,968.987793,-166.491608,1.16725387637073,2.45994027748756,2.08604112096007,29.234568,814.259338,155.44574,188.133896,1179.777344,-32.735348,"CRUZEXT"
26,17,0,39.125,4702.26,0.619589,-0.174486,0.637798,-0.422939,-0.92392,0.32014,-0.13161,4699.08,0.69522,-0.244711,0.499652,-0.455119,-0.89678,0.11164,-0.38133,2.18,2.57,2.74,2.79,3.17,3.03,2.99,3.83,3.2,3.91,3.96,3.88,3.75,3.82,3.72,1999,8.329167,61239.125167,294.702545,968.867371,-166.533768,1.16760167602678,2.46027055573281,2.0859571001314,29.208984,814.254578,155.431717,188.199341,1179.708496,-32.800465,"CRUZEXT"
27,17,0,39.148,4702.28,0.619619,-0.174481,0.637789,-0.422912,-0.92283,0.32204,-0.13511,4699.1,0.695192,-0.244825,0.499621,-0.455136,-0.8877,0.10896,-0.38063,2.18,2.57,2.74,2.79,3.17,3.03,2.99,3.83,3.2,3.91,3.97,3.88,3.75,3.82,3.72,2005,8.354167,61239.150167,294.734253,968.682495,-166.579803,1.16817349513696,2.46081084011286,2.08582174470052,29.200321,814.2771,155.395004,188.374939,1179.61377,-32.87986,"CRUZEXT"
28,17,0,39.153,4702.3,0.619595,-0.174286,0.637748,-0.423089,-0.92022,0.32539,-0.13445,4699.12,0.695212,-0.24489,0.499694,-0.454989,-0.88234,0.10997,-0.38297,2.18,2.57,2.73,2.79,3.17,3.03,2.99,3.83,3.2,3.91,3.97,3.88,3.75,3.82,3.72,2006,8.358333,61239.154333,294.746338,968.642456,-166.586609,1.16828468550153,2.46095060295119,2.08575578012749,29.194397,814.280334,155.382706,188.414337,1179.598511,-32.901676,"CRUZEXT"
29,17,0,39.201,4702.32,0.619569,-0.174303,0.63776,-0.423101,-0.91704,0.32338,-0.13361,4699.14,0.695155,-0.245162,0.499781,-0.454835,-0.89003,0.12008,-0.38942,2.18,2.57,2.74,2.79,3.17,3.03,2.99,3.83,3.2,3.91,3.96,3.88,3.75,3.82,3.72,2018,8.408333,61239.204333,295.00177,968.208252,-166.707108,1.1694116871036,2.46221458424419,2.08526045682704,29.247612,814.370178,155.301224,188.933975,1179.414551,-33.117382,"CRUZEXT"
30,17,0,39.206,4702.34,0.619541,-0.174303,0.637756,-0.423148,-0.9225,0.32033,-0.13339,4699.16,0.695061,-0.245522,0.499702,-0.45487,-0.9028,0.11806,-0.39764,2.18,2.57,2.73,2.79,3.17,3.03,2.99,3.83,3.2,3.91,3.97,3.88,3.75,3.82,3.72,2019,8.4125,61239.2085,295.038361,968.19342,-166.709076,1.16941067405443,2.46221841856844,2.08525523109423,29.2609,814.371033,155.295502,188.970917,1179.39917,-33.121346,"CRUZEXT"
31,17,0,39.226,4702.36,0.619566,-0.174364,0.637699,-0.423172,-0.92841,0.32129,-0.13234,4699.18,0.694946,-0.245914,0.499549,-0.455003,-0.91408,0.11074,-0.40356,2.18,2.57,2.73,2.79,3.17,3.03,2.99,3.83,3.2,3.91,3.96,3.88,3.75,3.82,3.72,2024,8.433333,61239.229333,295.194489,968.153503,-166.712479,1.16927071496843,2.46234168197953,2.08499702282191,29.317619,814.391479,155.263885,189.092758,1179.378906,-33.186646,"CRUZEXT"
32,17,0,39.231,4702.38,0.619622,-0.174304,0.637638,-0.423207,-0.92381,0.32431,-0.13123,4699.2,0.695031,-0.246186,0.499342,-0.454952,-0.92071,0.10285,-0.40091,2.18,2.57,2.73,2.79,3.17,3.03,2.99,3.83,3.2,3.91,3.96,3.88,3.75,3.81,3.72,2025,8.4375,61239.2335,295.226624,968.162231,-166.706024,1.16925162279411,2.46233148125703,2.08499262697285,29.328279,814.397156,155.255203,189.125656,1179.374878,-33.188194,"CRUZEXT"
33,17,0,39.267,4702.4,0.619704,-0.174189,0.63757,-0.423238,-0.92235,0.32553,-0.12946,4699.22,0.695112,-0.245901,0.499432,-0.454884,-0.91779,0.10048,-0.39722,2.18,2.57,2.74,2.79,3.17,3.03,2.99,3.83,3.2,3.91,3.97,3.88,3.75,3.82,3.72,2034,8.475,61239.271,295.466064,968.278015,-166.656403,1.16825590133008,2.46197155705598,2.08456606700946,29.444712,814.42749,155.236633,189.129349,1179.403442,-33.255726,"CRUZEXT"
34,17,0,39.272,4702.42,0.619792,-0.174209,0.63746,-0.423266,-0.91945,0.32502,-0.12952,4699.24,0.695272,-0.245391,0.499594,-0.454737,-0.91244,0.10268,-0.3912,2.18,2.57,2.73,2.79,3.17,3.03,2.99,3.83,3.2,3.91,3.96,3.88,3.75,3.82,3.72,2035,8.479167,61239.275167,295.481842,968.293579,-166.652527,1.16817290102824,2.46191953168489,2.08455558539876,29.453568,814.426392,155.238968,189.126846,1179.405273,-33.257397,"CRUZEXT"
35,17,0,39.306,4702.44,0.619868,-0.174222,0.637377,-0.423275,-0.91975,0.32404,-0.12892,4699.26,0.695373,-0.244965,0.499734,-0.454658,-0.90496,0.10125,-0.38163,2.18,2.57,2.73,2.79,3.17,3.03,2.99,3.83,3.2,3.91,3.96,3.88,3.75,3.82,3.72,2043,8.5125,61239.3085,295.534363,968.398865,-166.627182,1.16750582421052,2.4616479475054,2.08430354214837,29.477884,814.445984,155.252136,189.026474,1179.437134,-33.308746,"CRUZEXT"
36,17,0,39.311,4702.46,0.619923,-0.174219,0.637272,-0.423354,-0.91968,0.32486,-0.13416,4699.28,0.695468,-0.244541,0.499839,-0.454627,-0.89638,0.10006,-0.37762,2.18,2.57,2.73,2.79,3.17,3.03,2.99,3.83,3.2,3.91,3.96,3.88,3.75,3.82,3.72,2044,8.516667,61239.312667,295.526611,968.39624,-166.626419,1.16749346887106,2.46163929050707,2.08430301097784,29.479465,814.442139,155.248993,189.016525,1179.431274,-33.309219,"CRUZEXT"
37,17,0,39.345,4702.48,0.619905,-0.174272,0.637265,-0.423368,-0.92031,0.32582,-0.13536,4699.3,0.695401,-0.244747,0.499836,-0.454621,-0.89239,0.10086,-0.37493,2.18,2.57,2.73,2.79,3.17,3.03,2.99,3.83,3.2,3.91,3.97,3.88,3.75,3.82,3.72,2052,8.55,61239.346,295.374603,968.337036,-166.651413,1.16785540519626,2.46184422065431,2.08437408583689,29.445196,814.425903,155.276581,188.960251,1179.396362,-33.324154,"CRUZEXT"
38,17,0,39.368,4702.5,0.620004,-0.174255,0.63707,-0.423523,-0.92017,0.32329,-0.13768,4699.32,0.695308,-0.244916,0.499772,-0.454742,-0.89094,0.10012,-0.37878,2.18,2.57,2.73,2.79,3.17,3.03,2.99,3.83,3.2,3.91,3.97,3.88,3.75,3.82,3.72,2058,8.575,61239.371,295.204865,968.214783,-166.674408,1.16840979189901,2.46218946212521,2.08444676836976,29.386026,814.40155,155.302063,188.920563,1179.349609,-33.319473,"CRUZEXT"
39,17,0,39.373,4702.56,0.620042,-0.17419,0.636993,-0.42361,-0.91933,0.32132,-0.13902,4699.34,0.695192,-0.24528,0.499633,-0.454877,-0.89519,0.10257,-0.38644,2.18,2.57,2.73,2.79,3.17,3.03,2.99,3.83,3.2,3.91,3.97,3.88,3.75,3.82,3.72,2059,8.579167,61239.375167,295.170868,968.182495,-166.669556,1.16853815640132,2.4623151690355,2.08441125895638,29.380507,814.395935,155.308594,188.913284,1179.349365,-33.316315,"CRUZEXT"
40,17,0,39.407,4702.58,0.62006,-0.174184,0.637004,-0.423569,-0.91928,0.32145,-0.13731,4699.36,0.69513,-0.24568,0.499429,-0.454979,-0.89854,0.10742,-0.38878,2.18,2.57,2.73,2.79,3.17,3.03,2.99,3.83,3.2,3.91,3.96,3.88,3.75,3.82,3.72,2067,8.6125,61239.4085,294.962494,967.987915,-166.660583,1.16931453152778,2.46297177362819,2.08431448183668,29.311481,814.361694,155.340607,188.889084,1179.286133,-33.317955,"CRUZEXT"
41,17,0,39.412,4702.6,0.620056,-0.17419,0.636969,-0.423626,-0.92024,0.3234,-0.13545,4699.38,0.695078,-0.245962,0.499292,-0.455057,-0.90093,0.10885,-0.39148,2.18,2.57,2.73,2.79,3.17,3.03,2.99,3.83,3.2,3.91,3.97,3.88,3.75,3.81,3.72,2068,8.616667,61239.412667,294.93454,967.964478,-166.662338,1.16942947208837,2.46305809205201,2.08431252462737,29.303417,814.361084,155.346313,188.893677,1179.269775,-33.324986,"CRUZEXT"
42,17,0,39.446,4702.62,0.620021,-0.17426,0.636965,-0.423655,-0.92132,0.32291,-0.13506,4699.4,0.695039,-0.246137,0.49921,-0.455113,-0.90398,0.10756,-0.39328,2.18,2.57,2.73,2.79,3.17,3.03,2.99,3.83,3.2,3.91,3.97,3.88,3.75,3.81,3.72,2076,8.65,61239.446,294.778625,967.843262,-166.667526,1.16976162034831,2.46323667615304,2.08438766966174,29.259569,814.320068,155.396423,188.809631,1179.201172,-33.298405,"CRUZEXT"
43,17,0,39.452,4702.64,0.619989,-0.174324,0.63697,-0.423667,-0.92193,0.3252,-0.13096,4699.42,0.694967,-0.246242,0.499174,-0.455205,-0.90527,0.11098,-0.39226,2.18,2.57,2.73,2.79,3.17,3.03,2.99,3.83,3.2,3.91,3.97,3.88,3.75,3.81,3.72,2078,8.658333,61239.454333,294.748322,967.824829,-166.668106,1.16980610653254,2.46330443055358,2.08434767132959,29.255941,814.313232,155.408585,188.791397,1179.192383,-33.309639,"CRUZEXT"
44,17,0,39.485,4702.66,0.619931,-0.17432,0.637018,-0.423681,-0.92092,0.32397,-0.13161,4699.44,0.694887,-0.246229,0.499179,-0.455328,-0.90941,0.11145,-0.39511,2.18,2.57,2.73,2.79,3.17,3.03,2.99,3.83,3.2,3.91,3.97,3.88,3.75,3.82,3.72,2086,8.691667,61239.487667,294.656311,967.837708,-166.678207,1.169803278261,2.46318995652554,2.08447599388131,29.265593,814.284485,155.432877,188.700195,1179.182739,-33.291309,"CRUZEXT"
45,17,0,39.507,4702.68,0.619889,-0.174406,0.637016,-0.423711,-0.92304,0.32331,-0.12845,4699.46,0.694866,-0.246156,0.499159,-0.455422,-0.90812,0.11028,-0.39244,2.18,2.57,2.73,2.79,3.17,3.03,2.99,3.83,3.2,3.91,3.97,3.88,3.75,3.82,3.72,2091,8.7125,61239.5085,294.614014,967.879211,-166.687744,1.16973945219235,2.46298955505117,2.08465117758371,29.278791,814.269958,155.436523,188.63768,1179.198608,-33.254059,"CRUZEXT"
46,17,0,39.512,4702.7,0.619852,-0.174495,0.637043,-0.423688,-0.9233,0.32254,-0.13325,4699.48,0.694766,-0.246099,0.499198,-0.455563,-0.90627,0.11065,-0.3901,2.18,2.57,2.73,2.79,3.17,3.03,2.99,3.83,3.2,3.91,3.97,3.88,3.75,3.81,3.71,2092,8.716667,61239.512667,294.605347,967.888611,-166.690323,1.16974178583861,2.46294698487458,2.084701730646,29.280113,814.270203,155.438507,188.632019,1179.195923,-33.247738,"CRUZEXT"
47,17,0,39.546,4702.72,0.619805,-0.174573,0.637072,-0.42368,-0.92317,0.32159,-0.13262,4699.5,0.694678,-0.246125,0.499241,-0.455635,-0.90369,0.1077,-0.38932,2.18,2.57,2.73,2.79,3.17,3.03,2.99,3.83,3.2,3.91,3.97,3.88,3.75,3.82,3.72,2100,8.75,61239.546,294.538513,967.962036,-166.725159,1.16970957761175,2.46270636260382,2.08494932938924,29.289677,814.255859,155.426804,188.558884,1179.224854,-33.22625,"CRUZEXT"
48,17,0,39.551,4702.74,0.619758,-0.174631,0.63711,-0.423669,-0.92229,0.32265,-0.13304,4699.52,0.694624,-0.246064,0.499274,-0.455714,-0.89795,0.10468,-0.38796,2.18,2.57,2.73,2.79,3.17,3.03,2.99,3.83,3.2,3.91,3.96,3.88,3.75,3.82,3.72,2102,8.758333,61239.554333,294.527832,967.973694,-166.734497,1.16969074760122,2.46264899421548,2.08499899454153,29.288038,814.249268,155.423248,188.538071,1179.237549,-33.217014,"CRUZEXT"
49,17,0,39.586,4702.76,0.61971,-0.174599,0.637136,-0.423712,-0.92167,0.32246,-0.13381,4699.54,0.694588,-0.246039,0.499282,-0.455774,-0.89441,0.10913,-0.38527,2.18,2.57,2.74,2.79,3.17,3.03,2.99,3.83,3.2,3.91,3.97,3.88,3.75,3.82,3.72,2110,8.791667,61239.587667,294.486298,967.930542,-166.748199,1.1697462615235,2.46280950655827,2.08486240512331,29.262693,814.243286,155.40976,188.511307,1179.219971,-33.26413,"CRUZEXT"
50,17,0,39.591,4702.78,0.619687,-0.17462,0.637163,-0.423696,-0.92177,0.32197,-0.13529,4699.56,0.694648,-0.246041,0.499187,-0.455786,-0.8953,0.10732,-0.38855,2.18,2.57,2.73,2.79,3.17,3.03,2.99,3.83,3.2,3.91,3.97,3.88,3.75,3.82,3.72,2111,8.795833,61239.591833,294.486359,967.925171,-166.750427,1.16971460773992,2.46280818910305,2.08483733703715,29.26309,814.243835,155.41214,188.502426,1179.216431,-33.270985,"CRUZEXT"
51,17,0,39.629,4702.8,0.619773,-0.174577,0.637024,-0.423798,-0.92214,0.32263,-0.13452,4699.58,0.694648,-0.246054,0.499138,-0.455833,-0.89669,0.10578,-0.39113,2.18,2.57,2.73,2.79,3.17,3.03,2.99,3.83,3.2,3.91,3.97,3.88,3.75,3.82,3.71,2120,8.833333,61239.629333,294.478973,967.817871,-166.74559,1.16974358555231,2.46315274347196,2.08446835150646,29.217709,814.222046,155.387589,188.510483,1179.151489,-33.363701,"CRUZEXT"
52,17,0,39.635,4702.82,0.619772,-0.174574,0.637031,-0.423791,-0.92065,0.32171,-0.13499,4699.6,0.69477,-0.246016,0.499057,-0.455757,-0.89919,0.10611,-0.39113,2.18,2.57,2.73,2.79,3.17,3.03,2.99,3.83,3.2,3.91,3.96,3.88,3.75,3.81,3.71,2122,8.841667,61239.637667,294.482666,967.804321,-166.745453,1.16971983321659,2.46316045378794,2.08443960019708,29.205635,814.219788,155.379837,188.507919,1179.139893,-33.369957,"CRUZEXT"
53,17,0,39.667,4702.84,0.619764,-0.174571,0.63704,-0.42379,-0.91999,0.32127,-0.13567,4699.62,0.694823,-0.245933,0.49906,-0.455717,-0.90051,0.10742,-0.39101,2.18,2.57,2.73,2.79,3.17,3.03,2.99,3.83,3.2,3.91,3.97,3.88,3.75,3.82,3.71,2130,8.875,61239.671,294.488068,967.706543,-166.715469,1.16968033014452,2.46347213250977,2.08405050128519,29.15484,814.214172,155.358871,188.506012,1179.090088,-33.435196,"CRUZEXT"
54,17,0,39.672,4702.86,0.619771,-0.174494,0.637041,-0.423809,-0.92203,0.32331,-0.13466,4699.64,0.694893,-0.245826,0.499034,-0.455696,-0.90175,0.10613,-0.392,2.18,2.57,2.73,2.79,3.17,3.03,2.98,3.83,3.2,3.91,3.96,3.88,3.75,3.81,3.71,2131,8.879167,61239.675167,294.485382,967.693665,-166.708649,1.16971129117277,2.46351918562403,2.08402277858817,29.156736,814.213501,155.35585,188.513336,1179.080688,-33.43779,"CRUZEXT"
55,17,0,39.705,4702.88,0.619785,-0.174474,0.637037,-0.423804,-0.92207,0.323,-0.1321,4699.66,0.695014,-0.245724,0.499023,-0.455578,-0.90369,0.10658,-0.3896,2.18,2.57,2.73,2.79,3.17,3.03,2.99,3.83,3.2,3.91,3.96,3.88,3.75,3.82,3.71,2139,8.9125,61239.7085,294.491638,967.636414,-166.683182,1.16977729721984,2.46380553281569,2.08375117260562,29.142086,814.223022,155.352097,188.547852,1179.048706,-33.491344,"CRUZEXT"
56,17,0,39.727,4702.9,0.619744,-0.174381,0.637058,-0.42387,-0.92191,0.32486,-0.13154,4699.68,0.695114,-0.245613,0.499029,-0.455478,-0.90266,0.1088,-0.38904,2.18,2.57,2.73,2.79,3.17,3.03,2.99,3.83,3.2,3.91,3.97,3.89,3.75,3.82,3.71,2144,8.933333,61239.729333,294.481262,967.606934,-166.696457,1.16989206166023,2.46391576746491,2.08372169518417,29.152493,814.226868,155.351395,188.565552,1179.039185,-33.510834,"CRUZEXT"
57,17,0,39.732,4702.92,0.61973,-0.174411,0.637047,-0.423895,-0.92163,0.32535,-0.13225,4699.7,0.695132,-0.245616,0.49901,-0.45547,-0.90046,0.11206,-0.38726,2.18,2.57,2.73,2.79,3.17,3.03,2.99,3.83,3.2,3.91,3.96,3.88,3.75,3.82,3.71,2145,8.9375,61239.7335,294.482544,967.603699,-166.705231,1.16994423227737,2.46392866749886,2.08375079688432,29.159319,814.220459,155.350296,188.585403,1179.0271,-33.519684,"CRUZEXT"
58,17,0,39.765,4702.94,0.619714,-0.174456,0.637025,-0.423932,-0.92242,0.32504,-0.13152,4699.72,0.695094,-0.24566,0.498964,-0.455554,-0.90444,0.10965,-0.39,2.18,2.57,2.73,2.79,3.17,3.03,2.99,3.83,3.2,3.91,3.97,3.88,3.75,3.82,3.71,2153,8.970833,61239.766833,294.500214,967.593933,-166.722519,1.16993641298118,2.46398352700927,2.08368155889194,29.21529,814.221191,155.354248,188.602982,1179.022949,-33.555687,"CRUZEXT"
59,17,0,39.787,4702.96,0.619567,-0.174327,0.637219,-0.423909,-0.92114,0.32422,-0.12997,4699.74,0.695083,-0.245631,0.498956,-0.455596,-0.90503,0.10838,-0.39033,2.18,2.57,2.73,2.79,3.17,3.03,2.99,3.83,3.2,3.91,3.96,3.88,3.75,3.81,3.71,2158,8.991667,61239.787667,294.530212,967.605225,-166.749023,1.16990499490243,2.46395291211375,2.08369013104017,29.254372,814.231567,155.364853,188.626709,1179.025879,-33.58215,"CRUZEXT"
60,17,0,39.793,4702.98,0.619581,-0.174343,0.637196,-0.423917,-0.921,0.32528,-0.13206,4699.76,0.695058,-0.24559,0.498992,-0.455617,-0.90081,0.1106,-0.38766,2.18,2.57,2.73,2.79,3.17,3.03,2.99,3.83,3.2,3.91,3.97,3.88,3.75,3.82,3.71,2160,9,61239.796,294.529053,967.598999,-166.763962,1.16996066317292,2.46399636180743,2.08368727386577,29.268951,814.235901,155.368088,188.640411,1179.025146,-33.598961,"CRUZEXT"
61,17,0,39.827,4703,0.619534,-0.174315,0.637199,-0.423993,-0.92165,0.32596,-0.13014,4699.78,0.695011,-0.245547,0.499023,-0.455678,-0.89896,0.11175,-0.38679,2.18,2.57,2.73,2.79,3.17,3.03,2.99,3.83,3.2,3.91,3.97,3.88,3.75,3.82,3.71,2168,9.033333,61239.829333,294.556335,967.585876,-166.838547,1.17002881663039,2.46398928618999,2.08375261670281,29.337547,814.247375,155.369293,188.679932,1179.020386,-33.652069,"CRUZEXT"
62,17,0,39.833,4703.02,0.619541,-0.174374,0.63715,-0.424031,-0.9221,0.32488,-0.13354,4699.8,0.694959,-0.245645,0.498994,-0.455737,-0.90138,0.10622,-0.3909,2.18,2.58,2.73,2.79,3.17,3.03,2.99,3.83,3.2,3.91,3.97,3.88,3.75,3.82,3.71,2169,9.0375,61239.8335,294.561432,967.58667,-166.850845,1.17004533245644,2.46398522200753,2.08377113323978,29.336918,814.252197,155.364426,188.689941,1179.018921,-33.660976,"CRUZEXT"
63,17,0,39.866,4703.04,0.619524,-0.174451,0.637105,-0.424093,-0.92233,0.32066,-0.13506,4699.82,0.694925,-0.245667,0.498985,-0.455786,-0.89971,0.10477,-0.39186,2.18,2.58,2.73,2.79,3.17,3.03,2.99,3.83,3.2,3.91,3.97,3.88,3.75,3.82,3.7,2177,9.070833,61239.866833,294.617859,967.580383,-166.887222,1.17000795986736,2.46398414827395,2.08374096381383,29.366926,814.280518,155.323486,188.737457,1179.011597,-33.705025,"CRUZEXT"
64,17,0,39.871,4703.06,0.619556,-0.1746,0.637014,-0.424121,-0.92198,0.31785,-0.13407,4699.84,0.69491,-0.245644,0.499007,-0.455796,-0.89992,0.10554,-0.38974,2.18,2.58,2.73,2.79,3.17,3.03,2.99,3.83,3.2,3.91,3.97,3.88,3.75,3.81,3.7,2178,9.075,61239.871,294.620789,967.574707,-166.894562,1.17002297854955,2.464000491598,2.08373491252963,29.369095,814.273804,155.325684,188.742996,1179.010986,-33.712357,"CRUZEXT"
65,17,0,39.907,4703.08,0.619556,-0.174641,0.636966,-0.424176,-0.92008,0.32326,-0.13532,4699.86,0.694833,-0.245729,0.499096,-0.455771,-0.90079,0.10692,-0.38745,2.18,2.58,2.73,2.79,3.17,3.03,2.99,3.83,3.2,3.91,3.97,3.88,3.75,3.81,3.7,2187,9.1125,61239.9085,294.646912,967.533325,-166.953384,1.17014521054462,2.46416257095992,2.08365245009257,29.383444,814.296265,155.295242,188.79599,1179.004517,-33.786057,"CRUZEXT"
66,17,0,39.913,4703.1,0.619739,-0.174624,0.63668,-0.424345,-0.91929,0.32392,-0.13492,4699.88,0.694827,-0.245731,0.499115,-0.455758,-0.89973,0.10571,-0.38797,2.18,2.58,2.73,2.79,3.17,3.03,2.99,3.83,3.2,3.91,3.97,3.89,3.75,3.82,3.7,2189,9.120833,61239.916833,294.653839,967.523621,-166.956879,1.17013223689546,2.46417288463308,2.08362977044036,29.382093,814.297119,155.284485,188.800095,1178.995728,-33.795444,"CRUZEXT"
67,17,0,39.946,4703.12,0.61977,-0.174643,0.636622,-0.424379,-0.92228,0.32237,-0.13651,4699.9,0.694995,-0.245739,0.499003,-0.45562,-0.89927,0.10589,-0.39204,2.18,2.58,2.73,2.79,3.17,3.03,2.99,3.83,3.2,3.91,3.97,3.88,3.75,3.82,3.7,2196,9.15,61239.946,294.702881,967.497009,-166.969482,1.1700635873176,2.46424946395075,2.08348460739001,29.375422,814.299561,155.247101,188.837769,1178.970581,-33.849655,"CRUZEXT"
68,17,0,39.951,4703.14,0.619767,-0.174656,0.63659,-0.424426,-0.92215,0.32192,-0.13553,4699.92,0.69503,-0.245653,0.499044,-0.455569,-0.90088,0.10564,-0.39275,2.18,2.58,2.73,2.79,3.17,3.03,2.99,3.83,3.2,3.91,3.97,3.88,3.75,3.82,3.7,2198,9.158333,61239.954333,294.715881,967.492188,-166.973557,1.17003743826965,2.46427299865478,2.08343574407673,29.371248,814.299438,155.234818,188.844864,1178.968506,-33.866077,"CRUZEXT"
69,17,0,39.986,4703.16,0.619791,-0.174562,0.636533,-0.424516,-0.91973,0.32298,-0.1345,4699.94,0.695072,-0.245566,0.499065,-0.455528,-0.90187,0.10672,-0.38721,2.18,2.58,2.73,2.79,3.17,3.03,2.99,3.83,3.2,3.91,3.97,3.88,3.76,3.82,3.7,2206,9.191667,61239.987667,294.726868,967.463928,-167.004822,1.1700200193819,2.4643378532216,2.08334700115661,29.353868,814.309082,155.218719,188.848434,1178.957397,-33.914478,"CRUZEXT"
70,17,0,39.992,4703.18,0.61981,-0.174549,0.636499,-0.424544,-0.91943,0.32425,-0.13527,4699.96,0.694987,-0.245603,0.499127,-0.455571,-0.90236,0.10864,-0.3875,2.18,2.58,2.73,2.79,3.17,3.03,2.99,3.83,3.2,3.91,3.97,3.88,3.75,3.82,3.7,2208,9.2,61239.996,294.730835,967.459351,-167.008621,1.17003331343419,2.464359100584,2.08333389641452,29.354025,814.306885,155.210495,188.855118,1178.957642,-33.920616,"CRUZEXT"
71,17,0,40.026,4703.2,0.61973,-0.174378,0.636545,-0.424661,-0.92058,0.32547,-0.13353,4699.98,0.694972,-0.245551,0.499177,-0.455566,-0.90234,0.1039,-0.38928,2.18,2.58,2.73,2.79,3.17,3.03,2.99,3.83,3.2,3.91,3.97,3.88,3.75,3.82,3.7,2216,9.233333,61240.029333,294.741241,967.446655,-167.023438,1.16996488554817,2.46440526615727,2.08322362070896,29.358181,814.301208,155.191605,188.852661,1178.944336,-33.966839,"CRUZEXT"
72,17,0,40.031,4703.22,0.61972,-0.174393,0.636537,-0.424682,-0.92088,0.32441,-0.13531,4700,0.695043,-0.245673,0.499111,-0.455466,-0.89952,0.10477,-0.39125,2.18,2.58,2.73,2.79,3.17,3.03,2.99,3.83,3.2,3.91,3.97,3.89,3.75,3.81,3.7,2217,9.2375,61240.0335,294.744232,967.44989,-167.024567,1.16994179559357,2.46440503387237,2.08320447327,29.360077,814.307312,155.187958,188.853683,1178.939941,-33.977272,"CRUZEXT"
73,17,0,40.066,4703.24,0.619712,-0.174403,0.63654,-0.424684,-0.92135,0.32434,-0.13423,4700.02,0.695051,-0.24564,0.499115,-0.455466,-0.89823,0.10856,-0.3866,2.18,2.58,2.73,2.79,3.17,3.03,2.99,3.83,3.2,3.91,3.97,3.88,3.75,3.82,3.7,2225,9.270833,61240.066833,294.720001,967.385254,-167.078186,1.17003740960404,2.46446756361146,2.08321339704062,29.354784,814.296265,155.181808,188.839081,1178.914429,-34.010857,"CRUZEXT"
74,17,0,40.071,4703.26,0.619753,-0.174233,0.636423,-0.42487,-0.9209,0.32406,-0.13461,4700.04,0.695011,-0.245681,0.499069,-0.455556,-0.89861,0.10953,-0.38234,2.18,2.58,2.73,2.79,3.17,3.03,2.99,3.83,3.2,3.91,3.97,3.88,3.75,3.82,3.7,2226,9.275,61240.071,294.709625,967.368225,-167.08963,1.170104753534,2.46454046479398,2.08318669507833,29.354132,814.293213,155.182755,188.842239,1178.916382,-34.024475,"CRUZEXT"
75,17,0,40.105,4703.28,0.61974,-0.174238,0.636447,-0.424852,-0.91881,0.3253,-0.13389,4700.06,0.69493,-0.245898,0.49894,-0.455702,-0.89784,0.10753,-0.3867,2.18,2.58,2.73,2.79,3.17,3.03,2.99,3.83,3.2,3.9,3.97,3.88,3.75,3.82,3.7,2235,9.3125,61240.1085,294.667389,967.278625,-167.145721,1.1702837163463,2.46473471579666,2.08311511462102,29.346699,814.292725,155.191742,188.821259,1178.906738,-34.067989,"CRUZEXT"
76,17,0,40.127,4703.3,0.619722,-0.173973,0.636444,-0.424991,-0.91781,0.32645,-0.13654,4700.08,0.694822,-0.246029,0.498896,-0.455846,-0.90299,0.10008,-0.39669,2.18,2.58,2.73,2.79,3.17,3.03,2.99,3.82,3.2,3.91,3.97,3.89,3.75,3.82,3.7,2240,9.333333,61240.129333,294.649109,967.264099,-167.129837,1.17028892551947,2.46481684102714,2.08302563816303,29.344854,814.295044,155.186966,188.81041,1178.893921,-34.080982,"CRUZEXT"
77,17,0,40.132,4703.32,0.619727,-0.173994,0.636431,-0.424995,-0.9224,0.32329,-0.13424,4700.1,0.695031,-0.246098,0.498695,-0.45571,-0.9082,0.10118,-0.40069,2.18,2.58,2.73,2.79,3.17,3.03,2.99,3.83,3.2,3.9,3.97,3.88,3.75,3.82,3.7,2241,9.3375,61240.1335,294.64505,967.268616,-167.123474,1.17032122956316,2.46481805028498,2.08305140311369,29.34141,814.294861,155.184753,188.816727,1178.894043,-34.071415,"CRUZEXT"
78,17,0,40.165,4703.34,0.619717,-0.174021,0.63642,-0.425014,-0.92393,0.32274,-0.13543,4700.12,0.695064,-0.246019,0.498739,-0.455654,-0.90775,0.10847,-0.39444,2.18,2.58,2.73,2.79,3.17,3.03,2.99,3.83,3.2,3.91,3.97,3.88,3.75,3.82,3.7,2249,9.370833,61240.166833,294.591309,967.291138,-167.091873,1.1704209751915,2.4649406533066,2.08299510160682,29.336863,814.283142,155.209885,188.795868,1178.921509,-34.063129,"CRUZEXT"
79,17,0,40.185,4703.36,0.619695,-0.174037,0.636386,-0.425092,-0.91954,0.32497,-0.13649,4700.14,0.695134,-0.245938,0.498719,-0.455613,-0.90349,0.10943,-0.39169,2.18,2.58,2.73,2.79,3.17,3.02,2.99,3.82,3.2,3.91,3.97,3.89,3.75,3.82,3.7,2254,9.391667,61240.187667,294.592041,967.312378,-167.075287,1.170314434341,2.46488199990052,2.08297260723053,29.330963,814.279907,155.21405,188.770111,1178.932495,-34.052044,"CRUZEXT"
80,17,0,40.19,4703.38,0.619663,-0.174103,0.636375,-0.425127,-0.91786,0.32467,-0.13372,4700.16,0.695187,-0.245793,0.498794,-0.455529,-0.89413,0.10828,-0.38749,2.18,2.58,2.73,2.79,3.17,3.02,2.99,3.83,3.2,3.9,3.97,3.89,3.75,3.82,3.71,2255,9.395833,61240.191833,294.593079,967.31012,-167.07579,1.17029864399502,2.464881036596,2.08296043754143,29.328783,814.277954,155.215576,188.768921,1178.926636,-34.057587,"CRUZEXT"
81,17,0,40.225,4703.4,0.619636,-0.174201,0.636339,-0.42518,-0.92245,0.32234,-0.13482,4700.18,0.695181,-0.245691,0.498885,-0.455492,-0.89399,0.10756,-0.38431,2.18,2.58,2.73,2.79,3.17,3.02,2.99,3.82,3.2,3.9,3.96,3.88,3.75,3.82,3.7,2263,9.429167,61240.225167,294.574036,967.264526,-167.092606,1.17039456714509,2.46498868900513,2.08291801264322,29.32296,814.290771,155.204819,188.766006,1178.915039,-34.074574,"CRUZEXT"
82,17,0,40.247,4703.42,0.619596,-0.174266,0.636354,-0.425189,-0.92378,0.32366,-0.13403,4700.2,0.695064,-0.245838,0.498842,-0.455638,-0.89798,0.11159,-0.38487,2.18,2.58,2.73,2.79,3.16,3.02,2.99,3.82,3.2,3.91,3.97,3.88,3.75,3.82,3.71,2269,9.454167,61240.250167,294.525513,967.241638,-167.122635,1.17052396460449,2.46502116315449,2.08298961795309,29.304657,814.287598,155.221024,188.743408,1178.910522,-34.079582,"CRUZEXT"
83,17,0,40.252,4703.44,0.619593,-0.174284,0.636363,-0.425173,-0.92104,0.32617,-0.13403,4700.22,0.694893,-0.246044,0.498745,-0.455893,-0.90524,0.10665,-0.39328,2.18,2.58,2.73,2.79,3.17,3.02,2.99,3.82,3.2,3.9,3.97,3.88,3.75,3.82,3.71,2270,9.458333,61240.254333,294.522461,967.245667,-167.117981,1.1705034796958,2.4649963258742,2.08300079348006,29.302794,814.285278,155.220276,188.734711,1178.911377,-34.071625,"CRUZEXT"
84,17,0,40.285,4703.46,0.619612,-0.174254,0.636325,-0.425214,-0.91882,0.32411,-0.13501,4700.24,0.694835,-0.246081,0.498689,-0.456024,-0.9066,0.10149,-0.39406,2.18,2.58,2.73,2.79,3.17,3.02,3,3.82,3.2,3.9,3.97,3.88,3.75,3.82,3.71,2278,9.491667,61240.287667,294.490784,967.276733,-167.109879,1.17040390633546,2.46493213430972,2.08299049573049,29.301222,814.27124,155.220062,188.682907,1178.921997,-34.071953,"CRUZEXT"
85,17,0,40.305,4703.48,0.619599,-0.174312,0.636332,-0.425199,-0.91868,0.32516,-0.13473,4700.26,0.694914,-0.246164,0.498615,-0.45594,-0.90339,0.10257,-0.39014,2.18,2.58,2.73,2.79,3.17,3.02,2.99,3.82,3.2,3.9,3.97,3.88,3.75,3.82,3.71,2283,9.5125,61240.3085,294.472076,967.301147,-167.09613,1.17030954777805,2.46490428989083,2.08294302490254,29.288658,814.280212,155.225952,188.639648,1178.943604,-34.068226,"CRUZEXT"
86,17,0,40.311,4703.5,0.619558,-0.174346,0.636412,-0.425124,-0.9214,0.32342,-0.13499,4700.28,0.694915,-0.24605,0.498716,-0.455889,-0.89915,0.10557,-0.39038,2.18,2.58,2.73,2.79,3.17,3.02,3,3.82,3.2,3.9,3.97,3.88,3.75,3.82,3.7,2284,9.516667,61240.312667,294.464539,967.308594,-167.090073,1.17029658213488,2.46487956249992,2.0829603894205,29.283091,814.284546,155.224609,188.634399,1178.935791,-34.06501,"CRUZEXT"
87,17,0,40.346,4703.52,0.619526,-0.174379,0.636459,-0.425087,-0.92461,0.32343,-0.13464,4700.3,0.694941,-0.246024,0.49873,-0.455847,-0.9013,0.10625,-0.39286,2.18,2.58,2.73,2.79,3.17,3.02,3,3.82,3.2,3.91,3.97,3.88,3.75,3.82,3.71,2292,9.55,61240.346,294.412659,967.312073,-167.055527,1.17023275116114,2.46492350085616,2.08285651535574,29.255291,814.287292,155.23967,188.56221,1178.955444,-34.049572,"CRUZEXT"
88,17,0,40.351,4703.54,0.619483,-0.174411,0.636496,-0.425081,-0.92217,0.32411,-0.13459,4700.32,0.695005,-0.245887,0.498719,-0.455836,-0.89987,0.10878,-0.38733,2.18,2.58,2.73,2.79,3.16,3.02,3,3.82,3.2,3.91,3.97,3.89,3.75,3.82,3.71,2294,9.558333,61240.354333,294.402496,967.307068,-167.051636,1.17026379851762,2.46496989867757,2.08282958047887,29.251339,814.282715,155.246109,188.561554,1178.954834,-34.054249,"CRUZEXT"
89,17,0,40.386,4703.56,0.619436,-0.174448,0.636489,-0.425145,-0.9179,0.32436,-0.13477,4700.34,0.695015,-0.245907,0.498624,-0.455914,-0.89486,0.10958,-0.38067,2.18,2.58,2.73,2.79,3.17,3.02,3,3.83,3.2,3.91,3.97,3.88,3.75,3.82,3.71,2302,9.591667,61240.387667,294.30011,967.225159,-167.100052,1.17048518071275,2.46506281482647,2.08290943312047,29.221004,814.261047,155.262558,188.491104,1178.935547,-34.05434,"CRUZEXT"
90,17,0,40.392,4703.58,0.619404,-0.174496,0.636502,-0.425153,-0.91926,0.32417,-0.13463,4700.36,0.694829,-0.246159,0.498555,-0.456137,-0.89242,0.10964,-0.37973,2.18,2.58,2.73,2.79,3.17,3.02,3,3.82,3.2,3.91,3.97,3.88,3.75,3.82,3.71,2304,9.6,61240.396,294.267853,967.192261,-167.120987,1.17060758486656,2.46509852742409,2.08297144660255,29.20435,814.259766,155.27211,188.485687,1178.91626,-34.055859,"CRUZEXT"
91,17,0,40.443,4703.6,0.619318,-0.174341,0.636586,-0.425216,-0.92069,0.32359,-0.13257,4700.38,0.69461,-0.246472,0.498468,-0.456398,-0.8961,0.10648,-0.38553,2.18,2.58,2.73,2.79,3.17,3.02,3,3.82,3.2,3.91,3.97,3.88,3.75,3.82,3.71,2316,9.65,61240.446,294.053101,966.967834,-167.254532,1.17145472056012,2.46549182228696,2.08323294237319,29.189909,814.200134,155.331787,188.442413,1178.839722,-34.076572,"CRUZEXT"
92,17,0,40.45,4703.62,0.619301,-0.17437,0.636603,-0.425203,-0.91994,0.32523,-0.13464,4700.4,0.694429,-0.246806,0.498345,-0.456627,-0.90046,0.10552,-0.39014,2.18,2.58,2.73,2.79,3.17,3.02,3,3.82,3.2,3.9,3.97,3.88,3.76,3.81,3.71,2317,9.654167,61240.450167,294.039368,966.950745,-167.256958,1.1715110903037,2.46553567865054,2.08323010015667,29.193583,814.192505,155.329376,188.441818,1178.832031,-34.078449,"CRUZEXT"
93,17,0,40.465,4703.64,0.61927,-0.174433,0.63661,-0.425212,-0.91905,0.32586,-0.13435,4700.42,0.694235,-0.24727,0.498159,-0.456874,-0.90438,0.10542,-0.39507,2.18,2.58,2.73,2.79,3.17,3.02,3,3.82,3.2,3.91,3.97,3.88,3.75,3.82,3.71,2321,9.670833,61240.466833,293.993896,966.916321,-167.262802,1.17166293566214,2.46568469769053,2.08318715088069,29.18152,814.186279,155.337738,188.427444,1178.836792,-34.085751,"CRUZEXT"
94,17,0,40.485,4703.66,0.619203,-0.174433,0.636642,-0.425263,-0.92024,0.32481,-0.13393,4700.44,0.694112,-0.247668,0.497944,-0.457078,-0.91087,0.10252,-0.40114,2.18,2.58,2.73,2.79,3.17,3.02,3,3.82,3.2,3.91,3.97,3.88,3.75,3.82,3.71,2326,9.691667,61240.487667,293.979156,966.92041,-167.247086,1.17156889604397,2.46568526737014,2.08310768481955,29.1567,814.181946,155.323898,188.391861,1178.835571,-34.092247,"CRUZEXT"
95,17,0,40.49,4703.68,0.619164,-0.174478,0.636662,-0.42527,-0.92425,0.32228,-0.13337,4700.46,0.694374,-0.247722,0.497682,-0.456937,-0.90829,0.10236,-0.40111,2.17,2.58,2.73,2.79,3.17,3.02,3,3.82,3.2,3.91,3.97,3.89,3.75,3.82,3.71,2327,9.695833,61240.491833,293.980042,966.926819,-167.242477,1.17148798070056,2.46566797907747,2.08305960134342,29.156845,814.179199,155.322708,188.37088,1178.842285,-34.096985,"CRUZEXT"
96,17,0,40.526,4703.7,0.619159,-0.17453,0.636659,-0.425262,-0.92505,0.32031,-0.1355,4700.48,0.69446,-0.247538,0.497733,-0.456851,-0.90308,0.10631,-0.39399,2.17,2.58,2.73,2.79,3.16,3.02,3,3.82,3.2,3.91,3.97,3.88,3.75,3.82,3.71,2336,9.733333,61240.529333,294.009583,966.99762,-167.207581,1.17114281259187,2.46556391310374,2.08288898079732,29.147184,814.184631,155.311264,188.329575,1178.864258,-34.122051,"CRUZEXT"
97,17,0,40.53,4703.72,0.61915,-0.174529,0.636687,-0.425232,-0.92188,0.32408,-0.13103,4700.5,0.694526,-0.247265,0.497852,-0.456768,-0.90161,0.11025,-0.39369,2.18,2.57,2.73,2.79,3.17,3.02,3,3.82,3.2,3.91,3.97,3.88,3.75,3.82,3.71,2337,9.7375,61240.5335,294.007263,967.006287,-167.207123,1.17110591252322,2.46552193242325,2.08290598551329,29.146147,814.190979,155.309082,188.318909,1178.864014,-34.118683,"CRUZEXT"
98,17,0,40.565,4703.74,0.619129,-0.174566,0.636695,-0.425236,-0.92137,0.32813,-0.13416,4700.52,0.694589,-0.246943,0.497987,-0.4567,-0.90196,0.10901,-0.39003,2.17,2.57,2.73,2.79,3.16,3.02,3,3.82,3.2,3.91,3.97,3.88,3.75,3.82,3.71,2345,9.770833,61240.566833,294.041962,967.08136,-167.181564,1.1708901960987,2.46539201281429,2.0828733796209,29.152498,814.202332,155.302979,188.30574,1178.904785,-34.108521,"CRUZEXT"
99,17,0,40.588,4703.76,0.619073,-0.174612,0.636765,-0.425193,-0.91898,0.325,-0.1306,4700.54,0.694625,-0.246811,0.497998,-0.456704,-0.89859,0.10957,-0.38637,2.17,2.57,2.73,2.79,3.16,3.02,3,3.82,3.2,3.91,3.97,3.89,3.75,3.82,3.71,2351,9.795833,61240.591833,294.053772,967.129028,-167.211487,1.17098445084422,2.4653301497805,2.08302318906063,29.163589,814.213806,155.286362,188.346451,1178.931274,-34.10968,"CRUZEXT"
100,17,0,40.598,4703.78,0.61905,-0.174664,0.636759,-0.425215,-0.92111,0.32514,-0.13234,4700.56,0.694483,-0.246968,0.498018,-0.456814,-0.89968,0.10957,-0.38658,2.17,2.57,2.73,2.79,3.16,3.03,3,3.83,3.2,3.91,3.97,3.88,3.75,3.82,3.71,2353,9.804167,61240.600167,294.06546,967.148193,-167.225281,1.17098317136935,2.46524647689591,2.08311771631343,29.168125,814.221924,155.288055,188.3573,1178.937256,-34.100445,"CRUZEXT"
101,17,0,40.625,4703.8,0.618994,-0.174706,0.636788,-0.425236,-0.92194,0.32277,-0.13354,4700.58,0.694399,-0.24707,0.497993,-0.456914,-0.90112,0.10779,-0.39069,2.17,2.57,2.73,2.79,3.17,3.03,3,3.82,3.2,3.91,3.97,3.88,3.75,3.82,3.71,2359,9.829167,61240.625167,294.112427,967.215088,-167.267532,1.17095757521905,2.46498123211563,2.0833992512671,29.186895,814.239502,155.286575,188.394791,1178.96521,-34.072189,"CRUZEXT"
102,17,0,40.63,4703.82,0.618983,-0.174751,0.636782,-0.425242,-0.92133,0.32452,-0.13349,4700.6,0.694346,-0.247171,0.497954,-0.456982,-0.90041,0.10468,-0.39005,2.17,2.57,2.73,2.79,3.16,3.03,3,3.82,3.2,3.91,3.97,3.88,3.75,3.82,3.71,2361,9.8375,61240.6335,294.13446,967.242004,-167.276535,1.17091570969986,2.46484941685409,2.08351469079527,29.196009,814.246338,155.287567,188.406769,1178.968872,-34.054398,"CRUZEXT"
103,17,0,40.68,4703.84,0.618966,-0.174807,0.636765,-0.425269,-0.92027,0.32479,-0.13386,4700.62,0.694285,-0.247156,0.498,-0.457032,-0.89976,0.10788,-0.38996,2.17,2.57,2.73,2.78,3.16,3.02,3,3.83,3.2,3.91,3.97,3.88,3.75,3.82,3.71,2373,9.8875,61240.6835,294.223145,967.344482,-167.320496,1.17079077809,2.46464973520529,2.08363794553047,29.231949,814.285583,155.281128,188.464218,1179.037354,-34.06921,"CRUZEXT"
104,17,0,40.685,4703.86,0.618953,-0.174775,0.636718,-0.425372,-0.92161,0.32551,-0.13379,4700.64,0.694231,-0.247115,0.498052,-0.457079,-0.90168,0.10732,-0.39195,2.17,2.57,2.73,2.78,3.16,3.03,3,3.82,3.2,3.91,3.97,3.88,3.76,3.82,3.71,2374,9.891667,61240.687667,294.232269,967.355286,-167.321884,1.17080624788337,2.46463292027725,2.08367012742724,29.228411,814.294067,155.285004,188.474655,1179.050415,-34.059761,"CRUZEXT"
105,17,0,40.707,4703.88,0.618951,-0.174824,0.636675,-0.425418,-0.92179,0.32425,-0.13515,4700.66,0.694354,-0.24723,0.497898,-0.456998,-0.90329,0.10228,-0.3942,2.17,2.57,2.73,2.78,3.16,3.03,3,3.82,3.2,3.91,3.97,3.89,3.75,3.82,3.71,2379,9.9125,61240.7085,294.283112,967.419556,-167.336914,1.17068895509068,2.46453730779257,2.08368091670647,29.238232,814.314514,155.263519,188.501419,1179.087891,-34.078865,"CRUZEXT"
106,17,0,40.712,4703.9,0.618955,-0.174842,0.636631,-0.425473,-0.92114,0.32195,-0.13363,4700.68,0.694387,-0.247167,0.497865,-0.457019,-0.90137,0.10427,-0.39059,2.17,2.57,2.73,2.78,3.16,3.03,3,3.83,3.2,3.91,3.97,3.88,3.76,3.82,3.71,2380,9.916667,61240.712667,294.296875,967.426025,-167.338867,1.17068053337167,2.46453948123921,2.08367136785585,29.23946,814.322144,155.265121,188.513992,1179.092896,-34.084232,"CRUZEXT"
107,17,0,40.746,4703.92,0.618956,-0.174864,0.636592,-0.425519,-0.92217,0.32378,-0.13543,4700.7,0.694348,-0.247183,0.497916,-0.457015,-0.89917,0.10573,-0.38616,2.17,2.57,2.73,2.78,3.16,3.03,3,3.82,3.2,3.91,3.97,3.89,3.75,3.82,3.71,2388,9.95,61240.746,294.387878,967.502869,-167.365723,1.17056955824945,2.46441644336787,2.08371876270258,29.245083,814.368958,155.236481,188.574188,1179.154907,-34.096031,"CRUZEXT"
108,17,0,40.767,4703.94,0.618938,-0.174909,0.636548,-0.425593,-0.92133,0.32368,-0.13311,4700.72,0.694322,-0.247189,0.497964,-0.456997,-0.89947,0.10852,-0.38906,2.17,2.57,2.73,2.78,3.16,3.03,3,3.82,3.2,3.91,3.97,3.88,3.75,3.82,3.71,2394,9.975,61240.771,294.453094,967.560059,-167.40564,1.17055740974167,2.46426100896593,2.08388607746686,29.263699,814.400085,155.221481,188.63147,1179.195435,-34.090191,"CRUZEXT"
109,17,0,40.772,4703.96,0.618912,-0.174948,0.636512,-0.425669,-0.92088,0.32315,-0.1337,4700.74,0.694312,-0.247193,0.497988,-0.456984,-0.90105,0.10564,-0.39137,2.17,2.57,2.73,2.78,3.16,3.03,3,3.82,3.2,3.91,3.97,3.88,3.75,3.82,3.71,2395,9.979167,61240.775167,294.463287,967.570068,-167.413925,1.17058560948704,2.46424894769723,2.08392351120868,29.261833,814.409424,155.217575,188.65007,1179.200684,-34.091324,"CRUZEXT"
110,17,0,40.806,4703.98,0.618897,-0.17499,0.636459,-0.425752,-0.92018,0.32546,-0.13497,4700.76,0.694314,-0.247394,0.497894,-0.456974,-0.90079,0.10678,-0.38981,2.17,2.57,2.73,2.78,3.16,3.03,3,3.83,3.2,3.91,3.97,3.88,3.76,3.81,3.71,2403,10.0125,61240.8085,294.560425,967.664368,-167.467651,1.17057945242292,2.46404242213111,2.08415415502251,29.28322,814.451294,155.195862,188.737091,1179.276978,-34.07967,"CRUZEXT"
111,17,0,40.812,4704,0.618835,-0.17498,0.636493,-0.425795,-0.92041,0.32377,-0.13527,4700.78,0.694259,-0.247429,0.497906,-0.457027,-0.90109,0.10702,-0.39071,2.17,2.57,2.73,2.78,3.16,3.03,3,3.82,3.2,3.91,3.97,3.88,3.75,3.82,3.71,2404,10.016667,61240.812667,294.571106,967.675842,-167.474258,1.17056590527412,2.46401646027173,2.08417243204412,29.280495,814.460876,155.198486,188.74437,1179.284058,-34.081936,"CRUZEXT"
112,17,0,40.847,4704.02,0.618841,-0.174998,0.636451,-0.425843,-0.92153,0.32455,-0.13382,4700.8,0.694256,-0.247554,0.497854,-0.45702,-0.90477,0.10285,-0.39214,2.17,2.57,2.73,2.78,3.16,3.03,3,3.83,3.2,3.91,3.97,3.89,3.75,3.81,3.71,2413,10.054167,61240.850167,294.687683,967.840576,-167.518829,1.17036819417025,2.46352307676335,2.08456981119651,29.312529,814.502869,155.168457,188.820541,1179.34668,-34.043907,"CRUZEXT"
113,17,0,40.852,4704.04,0.618867,-0.174996,0.636444,-0.425815,-0.92151,0.32521,-0.13491,4700.82,0.694204,-0.247564,0.497868,-0.457078,-0.90468,0.10482,-0.39132,2.17,2.57,2.73,2.78,3.16,3.03,3,3.83,3.2,3.91,3.97,3.88,3.76,3.82,3.71,2414,10.058333,61240.854333,294.699188,967.856995,-167.523651,1.17033116007969,2.46348329544625,2.08458415511709,29.319986,814.497925,155.157501,188.823944,1179.354004,-34.046799,"CRUZEXT"
114,17,0,40.887,4704.06,0.618846,-0.174967,0.636462,-0.425833,-0.92076,0.32497,-0.13384,4700.84,0.694172,-0.247547,0.497902,-0.4571,-0.90372,0.10638,-0.38935,2.17,2.57,2.73,2.78,3.16,3.03,3,3.83,3.2,3.91,3.97,3.88,3.75,3.82,3.71,2422,10.091667,61240.887667,294.794037,968.012451,-167.566925,1.17019854506219,2.46316339086711,2.08483802645012,29.349249,814.555542,155.153122,188.883728,1179.45874,-34.027637,"CRUZEXT"
115,17,0,40.891,4704.08,0.618869,-0.174989,0.636468,-0.425779,-0.92055,0.32527,-0.13567,4700.86,0.694206,-0.247532,0.497893,-0.457065,-0.90138,0.10577,-0.39068,2.17,2.57,2.73,2.78,3.16,3.03,3,3.83,3.2,3.91,3.97,3.89,3.76,3.82,3.71,2423,10.095833,61240.891833,294.812439,968.027893,-167.575806,1.17015591563159,2.46308742897419,2.08488895749694,29.356077,814.555908,155.149094,188.890762,1179.462646,-34.023582,"CRUZEXT"
116,17,0,40.926,4704.1,0.618863,-0.174886,0.636427,-0.425893,-0.92215,0.32676,-0.13571,4700.88,0.694208,-0.247492,0.497915,-0.45706,-0.89826,0.10611,-0.38893,2.17,2.57,2.72,2.78,3.16,3.03,3,3.83,3.2,3.91,3.97,3.89,3.76,3.82,3.71,2432,10.133333,61240.929333,294.940582,968.178955,-167.623947,1.17003264364776,2.46277070496367,2.08514696735901,29.397251,814.626892,155.146988,188.99292,1179.550049,-34.016819,"CRUZEXT"
117,17,0,40.948,4704.12,0.618864,-0.174902,0.636426,-0.425885,-0.92135,0.32413,-0.13501,4700.9,0.694072,-0.247573,0.498,-0.45713,-0.89863,0.1069,-0.38695,2.17,2.57,2.73,2.78,3.16,3.03,3,3.82,3.2,3.91,3.97,3.88,3.76,3.82,3.71,2437,10.154167,61240.950167,294.998535,968.244812,-167.666183,1.17008337104608,2.46261564939688,2.08536639531195,29.415182,814.654785,155.141678,189.070465,1179.575684,-34.015892,"CRUZEXT"
118,17,0,40.952,4704.14,0.618855,-0.17494,0.636437,-0.425866,-0.92114,0.32462,-0.13529,4700.92,0.693989,-0.247604,0.498056,-0.457178,-0.89828,0.10648,-0.38729,2.17,2.57,2.73,2.78,3.16,3.03,3,3.83,3.2,3.91,3.97,3.89,3.76,3.82,3.71,2438,10.158333,61240.954333,295.014648,968.263,-167.682098,1.170056028412,2.46256525044024,2.08540096299738,29.414919,814.661194,155.149078,189.072189,1179.600342,-34.014107,"CRUZEXT"
119,17,0,40.987,4704.16,0.618893,-0.174864,0.636379,-0.42593,-0.91943,0.32343,-0.13543,4700.94,0.693935,-0.247644,0.498066,-0.457227,-0.89784,0.10388,-0.39035,2.17,2.57,2.73,2.78,3.16,3.03,3,3.82,3.2,3.91,3.97,3.89,3.76,3.82,3.71,2446,10.191667,61240.987667,295.121613,968.34021,-167.718796,1.16996360979875,2.46234628543243,2.08557324285102,29.418789,814.710327,155.145065,189.152954,1179.646362,-34.00618,"CRUZEXT"
120,17,0,40.992,4704.18,0.618903,-0.17487,0.636385,-0.425903,-0.92011,0.3242,-0.13567,4700.96,0.694026,-0.247726,0.497958,-0.457163,-0.89959,0.10413,-0.39169,2.17,2.57,2.73,2.78,3.16,3.03,3,3.83,3.2,3.91,3.97,3.89,3.75,3.82,3.71,2448,10.2,61240.996,295.147247,968.351379,-167.728363,1.17002039386228,2.46237336108338,2.08558996290237,29.419003,814.71875,155.144821,189.193604,1179.660522,-34.012825,"CRUZEXT"
121,17,0,41.027,4704.2,0.618967,-0.174789,0.636265,-0.426024,-0.92135,0.32305,-0.13586,4700.98,0.69402,-0.247708,0.49798,-0.457157,-0.89861,0.10491,-0.38818,2.17,2.57,2.73,2.78,3.16,3.03,3,3.83,3.2,3.91,3.97,3.88,3.76,3.82,3.71,2456,10.233333,61241.029333,295.248047,968.40033,-167.765808,1.17006966793277,2.46237354769505,2.08563105013359,29.44421,814.757202,155.111877,189.308884,1179.7052,-34.043282,"CRUZEXT"
122,17,0,41.032,4704.22,0.618963,-0.174805,0.636278,-0.426004,-0.92055,0.32472,-0.13571,4701,0.694033,-0.247818,0.497913,-0.45715,-0.89987,0.10528,-0.38839,2.17,2.57,2.73,2.78,3.16,3.03,3,3.83,3.2,3.91,3.97,3.88,3.76,3.82,3.71,2457,10.2375,61241.0335,295.259521,968.400146,-167.773102,1.17009712122933,2.46236457118663,2.08566429526122,29.447657,814.764648,155.106857,189.323303,1179.711304,-34.037769,"CRUZEXT"
123,17,0,41.066,4704.24,0.61897,-0.174807,0.636287,-0.425979,-0.92097,0.32288,-0.13618,4701.02,0.69401,-0.247913,0.49787,-0.45718,-0.90172,0.10484,-0.39165,2.17,2.57,2.72,2.78,3.16,3.03,3,3.83,3.2,3.91,3.97,3.88,3.76,3.82,3.71,2465,10.270833,61241.066833,295.35733,968.464172,-167.804352,1.17006686075882,2.46225604043895,2.08576270484391,29.447647,814.808289,155.088623,189.411819,1179.760254,-34.043579,"CRUZEXT"
124,17,0,41.089,4704.26,0.618967,-0.174873,0.636316,-0.425912,-0.92102,0.32314,-0.13494,4701.04,0.693991,-0.247985,0.497832,-0.457213,-0.90456,0.10308,-0.39294,2.17,2.57,2.73,2.78,3.16,3.03,3,3.82,3.2,3.91,3.97,3.88,3.76,3.82,3.71,2471,10.295833,61241.091833,295.439026,968.532349,-167.832794,1.17002432665553,2.46207650260764,2.08593178827553,29.462605,814.837891,155.070969,189.487991,1179.787598,-34.038513,"CRUZEXT"
125,17,0,41.094,4704.28,0.618969,-0.17486,0.636349,-0.425866,-0.92104,0.32411,-0.13581,4701.06,0.694017,-0.248115,0.49778,-0.45716,-0.90227,0.10561,-0.38869,2.17,2.57,2.73,2.78,3.16,3.03,3,3.83,3.2,3.91,3.97,3.88,3.76,3.82,3.71,2472,10.3,61241.096,295.44986,968.541626,-167.839569,1.17002664573433,2.46206144014008,2.08595090562591,29.471712,814.836914,155.065445,189.500687,1179.791748,-34.042389,"CRUZEXT"
126,17,0,41.127,4704.3,0.618974,-0.174793,0.636354,-0.425879,-0.91956,0.32661,-0.1359,4701.08,0.694004,-0.248073,0.497808,-0.457171,-0.8994,0.10625,-0.38654,2.17,2.57,2.73,2.78,3.16,3.03,3,3.83,3.2,3.91,3.97,3.89,3.75,3.82,3.71,2480,10.333333,61241.129333,295.533691,968.613892,-167.876877,1.17000469994456,2.46188803236968,2.08613022424314,29.490978,814.887085,155.058472,189.581696,1179.829102,-34.040688,"CRUZEXT"
127,17,0,41.132,4704.32,0.618993,-0.174781,0.636364,-0.425842,-0.92088,0.32638,-0.13604,4701.1,0.694019,-0.248193,0.497773,-0.457121,-0.89959,0.10355,-0.38977,2.17,2.57,2.73,2.78,3.16,3.03,3,3.83,3.2,3.91,3.97,3.88,3.76,3.82,3.71,2481,10.3375,61241.1335,295.539856,968.616882,-167.876877,1.17003450817066,2.46192615485809,2.08611173351504,29.497492,814.892944,155.053558,189.596527,1179.836182,-34.046589,"CRUZEXT"
128,17,0,41.166,4704.34,0.618999,-0.174796,0.636367,-0.425821,-0.92102,0.32465,-0.13414,4701.12,0.694018,-0.248142,0.497815,-0.457105,-0.89971,0.10214,-0.38939,2.17,2.57,2.73,2.78,3.16,3.03,3,3.83,3.2,3.91,3.97,3.88,3.75,3.82,3.71,2489,10.370833,61241.166833,295.622009,968.659058,-167.933487,1.17018990863506,2.46177992648749,2.08640854882053,29.513866,814.923767,155.041534,189.719254,1179.849976,-34.035236,"CRUZEXT"
129,17,0,41.186,4704.36,0.619113,-0.174798,0.636178,-0.425937,-0.92058,0.32356,-0.13693,4701.14,0.693987,-0.248171,0.497826,-0.457125,-0.896,0.10639,-0.38644,2.17,2.57,2.73,2.78,3.16,3.03,3,3.83,3.2,3.91,3.97,3.88,3.76,3.82,3.71,2494,10.391667,61241.187667,295.65036,968.655518,-167.976395,1.17040184809812,2.46179158524485,2.0865726302933,29.519186,814.939087,155.037415,189.802582,1179.844482,-34.041882,"CRUZEXT"
130,17,0,41.191,4704.38,0.619127,-0.174807,0.636163,-0.425936,-0.92034,0.32481,-0.13564,4701.16,0.693923,-0.248358,0.49775,-0.457202,-0.89948,0.10475,-0.38803,2.17,2.57,2.73,2.78,3.16,3.03,3,3.83,3.2,3.91,3.97,3.88,3.76,3.82,3.71,2495,10.395833,61241.191833,295.655579,968.651611,-167.983551,1.17041854813762,2.4617938283718,2.08658404566975,29.520227,814.94873,155.035355,189.81015,1179.844604,-34.044029,"CRUZEXT"
131,17,0,41.227,4704.4,0.619178,-0.174771,0.636096,-0.425976,-0.92038,0.32483,-0.13578,4701.18,0.693824,-0.248534,0.497691,-0.457322,-0.89877,0.10435,-0.38947,2.17,2.57,2.73,2.78,3.16,3.03,3,3.83,3.2,3.91,3.97,3.88,3.75,3.82,3.71,2504,10.433333,61241.229333,295.709106,968.634277,-168.060867,1.17073781494366,2.46174305419869,2.08690884984993,29.519928,814.972778,155.029648,189.935272,1179.835083,-34.034164,"CRUZEXT"
132,17,0,41.232,4704.42,0.619173,-0.174794,0.63612,-0.425938,-0.91884,0.32427,-0.13752,4701.2,0.693757,-0.248839,0.497589,-0.457368,-0.90217,0.10256,-0.38825,2.17,2.57,2.73,2.78,3.16,3.03,3,3.83,3.2,3.91,3.97,3.88,3.76,3.82,3.71,2505,10.4375,61241.2335,295.716339,968.631531,-168.069962,1.17075473514829,2.46179712450697,2.08686140160291,29.521868,814.969849,155.026657,189.947601,1179.839844,-34.055561,"CRUZEXT"
133,17,0,41.267,4704.44,0.619191,-0.174799,0.636142,-0.425877,-0.91914,0.32413,-0.13651,4701.22,0.693677,-0.248913,0.497596,-0.457442,-0.89608,0.0971,-0.3847,2.17,2.57,2.73,2.78,3.16,3.03,3,3.83,3.2,3.91,3.97,3.88,3.76,3.82,3.71,2514,10.475,61241.271,295.736206,968.548096,-168.129303,1.17123524415639,2.46199616238774,2.08703607742101,29.523922,815.003418,155.016205,190.080704,1179.804321,-34.0648,"CRUZEXT"
134,17,0,41.272,4704.46,0.619236,-0.174842,0.636094,-0.425866,-0.92113,0.32282,-0.1371,4701.24,0.693582,-0.248983,0.497652,-0.457486,-0.89685,0.10052,-0.38693,2.17,2.57,2.73,2.78,3.16,3.03,3,3.83,3.2,3.9,3.97,3.88,3.76,3.82,3.71,2515,10.479167,61241.275167,295.734985,968.532104,-168.145828,1.17130683695755,2.46199563464084,2.08709643835635,29.526848,815.00647,155.017441,190.096313,1179.790405,-34.065693,"CRUZEXT"
135,17,0,41.308,4704.48,0.619225,-0.17485,0.636107,-0.425859,-0.92167,0.32415,-0.13506,4701.26,0.693538,-0.249146,0.49744,-0.457695,-0.89655,0.0986,-0.38103,2.17,2.57,2.73,2.78,3.16,3.03,3,3.83,3.2,3.91,3.97,3.88,3.76,3.82,3.72,2523,10.5125,61241.3085,295.667694,968.32843,-168.324799,1.17210970587227,2.46244592980816,2.08725331539819,29.524426,814.999084,155.040634,190.185852,1179.751953,-34.151524,"CRUZEXT"
136,17,0,41.313,4704.5,0.619176,-0.174822,0.636117,-0.425926,-0.91832,0.32797,-0.1347,4701.28,0.693353,-0.249426,0.496674,-0.458655,-0.88872,0.08623,-0.37772,2.17,2.57,2.73,2.78,3.16,3.03,3,3.83,3.2,3.91,3.97,3.88,3.76,3.82,3.71,2525,10.520833,61241.316833,295.623138,968.2453,-168.407684,1.1724246282623,2.46264578238265,2.0872881499779,29.518147,814.999146,155.042892,190.199677,1179.744019,-34.200104,"CRUZEXT"
137,17,0,41.347,4704.52,0.61914,-0.174936,0.636098,-0.42596,-0.91561,0.32441,-0.13925,4701.3,0.692937,-0.24984,0.495444,-0.460384,-0.88199,0.09825,-0.36769,2.17,2.57,2.73,2.78,3.16,3.03,3,3.83,3.2,3.91,3.97,3.89,3.75,3.82,3.71,2533,10.554167,61241.350167,295.214264,967.745667,-168.91774,1.17453610094255,2.46402857634268,2.08746929630306,29.478577,814.946716,155.011429,190.190735,1179.740967,-34.501999,"CRUZEXT"
138,17,0,41.352,4704.54,0.619036,-0.175109,0.636092,-0.426049,-0.92264,0.31771,-0.13827,4701.32,0.692214,-0.249712,0.494514,-0.462536,-0.87514,0.12512,-0.34204,2.17,2.57,2.73,2.78,3.16,3.03,3,3.83,3.2,3.91,3.97,3.88,3.76,3.82,3.71,2534,10.558333,61241.354333,295.144623,967.669373,-169.009689,1.17487800163491,2.4642021858519,2.08755521898294,29.461119,814.938843,155.005966,190.178864,1179.750977,-34.537674,"CRUZEXT"
139,17,0,41.387,4704.56,0.618868,-0.175328,0.636107,-0.426182,-0.92205,0.3171,-0.1381,4701.34,0.690831,-0.249141,0.494387,-0.46504,-0.86837,0.14835,-0.33111,2.17,2.57,2.73,2.78,3.16,3.03,3,3.83,3.2,3.91,3.97,3.88,3.75,3.82,3.71,2542,10.591667,61241.387667,294.55249,967.169617,-170.022415,1.17735344387248,2.46412240711215,2.08968874847658,29.305225,814.750244,154.986664,189.983963,1179.694336,-34.755142,"CRUZEXT"
140,17,0,41.392,4704.58,0.618595,-0.175469,0.636249,-0.426306,-0.91024,0.32188,-0.14063,4701.36,0.688367,-0.248896,0.494899,-0.46827,-0.89546,0.14329,-0.36663,2.17,2.57,2.73,2.79,3.16,3.03,3,3.83,3.2,3.91,3.97,3.88,3.76,3.82,3.72,2544,10.6,61241.396,294.389648,967.144043,-170.331467,1.17786712718025,2.46362337234091,2.0906763412211,29.246002,814.690979,154.97908,189.902252,1179.681641,-34.767689,"CRUZEXT"
141,17,0,41.426,4704.6,0.618343,-0.175542,0.636419,-0.426389,-0.90719,0.31911,-0.14441,4701.38,0.685303,-0.248577,0.495881,-0.471881,-0.96329,0.13871,-0.40976,2.17,2.57,2.73,2.79,3.16,3.03,3,3.83,3.2,3.91,3.97,3.88,3.76,3.82,3.72,2552,10.633333,61241.429333,293.778503,967.922913,-171.435944,1.17756035843958,2.45865615153567,2.0960418826257,28.865309,814.455505,154.973312,189.173401,1179.689453,-34.550549,"CRUZEXT"
142,17,0,41.448,4704.62,0.618068,-0.17556,0.636746,-0.426294,-0.91619,0.31921,-0.14696,4701.4,0.682404,-0.247362,0.497413,-0.475098,-1.02802,0.12347,-0.44824,2.17,2.57,2.73,2.79,3.16,3.03,3,3.83,3.2,3.91,3.97,3.88,3.76,3.82,3.71,2557,10.654167,61241.450167,293.361267,969.020386,-172.089523,1.17611468931756,2.45395744025373,2.10015823536811,28.601557,814.310303,155.017822,188.449448,1179.859131,-34.308823,"CRUZEXT"
143,17,0,41.454,4704.64,0.617918,-0.17542,0.637102,-0.426035,-0.91657,0.32406,-0.14919,4701.42,0.67993,-0.244931,0.498863,-0.478373,-1.0053,0.15892,-0.45442,2.17,2.57,2.73,2.79,3.16,3.03,3,3.83,3.2,3.91,3.97,3.89,3.76,3.82,3.71,2558,10.658333,61241.454333,293.289124,969.286072,-172.216064,1.17564038578748,2.45286852300445,2.10099700906712,28.549866,814.26709,155.032562,188.277191,1179.897339,-34.263283,"CRUZEXT"
144,17,0,41.502,4704.66,0.617876,-0.175168,0.637458,-0.425667,-0.91497,0.33261,-0.14659,4701.44,0.677239,-0.241682,0.500025,-0.48261,-0.94821,0.20203,-0.42104,2.17,2.57,2.73,2.78,3.16,3.03,3,3.83,3.2,3.91,3.97,3.89,3.76,3.82,3.71,2570,10.708333,61241.504333,292.436615,973.039856,-174.113403,1.16905166839058,2.43690692102189,2.11351533582891,27.884426,813.807129,155.341568,185.802109,1180.790894,-33.270329,"CRUZEXT"
145,17,0,41.508,4704.68,0.61783,-0.17495,0.637875,-0.4252,-0.91729,0.33215,-0.14376,4701.46,0.673757,-0.23798,0.501471,-0.487794,-0.90829,0.22916,-0.38843,2.17,2.57,2.73,2.78,3.16,3.03,3,3.83,3.2,3.91,3.97,3.89,3.76,3.82,3.71,2571,10.7125,61241.5085,292.378723,973.383789,-174.314484,1.16831911849178,2.4352897210749,2.11472308561209,27.842531,813.755615,155.374222,185.543594,1180.88147,-33.167301,"CRUZEXT"
146,17,0,41.528,4704.7,0.617639,-0.174872,0.638336,-0.424816,-0.91739,0.32961,-0.13497,4701.48,0.669595,-0.233313,0.503677,-0.493474,-0.9039,0.22137,-0.35918,2.17,2.57,2.73,2.78,3.16,3.03,3,3.83,3.2,3.9,3.97,3.89,3.76,3.82,3.72,2576,10.733333,61241.529333,292.145172,975.351746,-175.477173,1.16461539743098,2.42591365526917,2.12213912190386,27.610865,813.48114,155.574692,184.389832,1181.164307,-32.61438,"CRUZEXT"
147,17,0,41.533,4704.72,0.617258,-0.174968,0.638891,-0.424496,-0.91427,0.32952,-0.12995,4701.5,0.664829,-0.227351,0.506855,-0.499412,-0.91701,0.23136,-0.3403,2.17,2.57,2.73,2.78,3.16,3.03,3,3.83,3.2,3.91,3.97,3.88,3.76,3.82,3.71,2577,10.7375,61241.5335,292.087494,975.776917,-175.742859,1.16388295090254,2.42391952942121,2.12375503998588,27.56266,813.42395,155.618454,184.152298,1181.225342,-32.509655,"CRUZEXT"
148,17,0,41.566,4704.74,0.616739,-0.175226,0.639516,-0.424203,-0.90836,0.33405,-0.12458,4701.52,0.659249,-0.22076,0.510747,-0.505759,-0.94308,0.26409,-0.35779,2.17,2.57,2.73,2.78,3.16,3.03,3,3.83,3.2,3.91,3.97,3.89,3.76,3.82,3.71,2585,10.770833,61241.566833,291.595734,979.720459,-178.18129,1.15490702049973,2.40442300648152,2.13795822878663,27.196943,812.938538,156.005173,181.150177,1182.122192,-31.311743,"CRUZEXT"
149,17,0,41.587,4704.76,0.616184,-0.17553,0.640211,-0.423834,-0.90587,0.33402,-0.1243,4701.54,0.653302,-0.213052,0.515208,-0.512216,-0.93985,0.28814,-0.35294,2.17,2.57,2.73,2.79,3.16,3.03,3,3.83,3.2,3.9,3.97,3.89,3.76,3.82,3.71,2590,10.791667,61241.587667,291.236206,982.53479,-180.080948,1.15060604467236,2.39069493247725,2.14947181906854,26.977972,812.611816,156.297882,179.703873,1182.416748,-30.550045,"CRUZEXT"
150,17,0,41.592,4704.78,0.615726,-0.17584,0.640946,-0.423262,-0.91129,0.33412,-0.12671,4701.56,0.646844,-0.204716,0.519866,-0.519061,-0.90792,0.31864,-0.33367,2.17,2.57,2.73,2.78,3.16,3.03,3,3.83,3.2,3.91,3.97,3.88,3.76,3.82,3.71,2592,10.8,61241.596,291.022064,984.245422,-180.89122,1.1486228910607,2.38392078105105,2.15522446961618,26.902527,812.478943,156.417816,179.168274,1182.551758,-30.279493,"CRUZEXT"
151,17,0,41.626,4704.8,0.615415,-0.175974,0.641725,-0.422476,-0.91931,0.3321,-0.12556,4701.58,0.639302,-0.196514,0.524455,-0.526899,-0.88398,0.35601,-0.32748,2.17,2.57,2.73,2.79,3.16,3.03,3,3.83,3.2,3.91,3.97,3.88,3.76,3.82,3.71,2600,10.833333,61241.629333,290.057373,989.458862,-184.686722,1.14352059340602,2.35902298971853,2.17788919667496,26.553862,811.995178,156.821106,177.005524,1182.911743,-29.051683,"CRUZEXT"
152,17,0,41.648,4704.82,0.615161,-0.176037,0.642546,-0.421572,-0.92538,0.32814,-0.12047,4701.6,0.630507,-0.188423,0.529244,-0.535593,-0.90799,0.37589,-0.33051,2.17,2.57,2.73,2.79,3.16,3.03,3,3.83,3.2,3.91,3.97,3.89,3.76,3.82,3.71,2605,10.854167,61241.650167,289.127777,993.018616,-187.274612,1.14110090566416,2.34195299865314,2.19405687410324,26.361856,811.720459,157.034683,175.5625,1183.014282,-28.159393,"CRUZEXT"
153,17,0,41.653,4704.84,0.614899,-0.176128,0.643359,-0.420675,-0.93063,0.32373,-0.11529,4701.62,0.620778,-0.179833,0.534551,-0.544565,-0.93452,0.38225,-0.34417,2.17,2.57,2.73,2.78,3.16,3.03,3,3.83,3.2,3.91,3.97,3.89,3.76,3.82,3.71,2606,10.858333,61241.654333,288.909027,993.773499,-187.805862,1.1407969201198,2.33853530135879,2.19741390864306,26.321587,811.654602,157.070633,175.298737,1183.049438,-27.99111,"CRUZEXT"
154,17,0,41.687,4704.86,0.614693,-0.176153,0.644175,-0.419715,-0.92732,0.32178,-0.11353,4701.64,0.61059,-0.171565,0.539425,-0.553865,-0.92036,0.40154,-0.37315,2.17,2.58,2.73,2.79,3.16,3.03,3,3.83,3.2,3.91,3.97,3.88,3.75,3.82,3.71,2614,10.891667,61241.687667,286.996979,1000.16394,-192.064484,1.13859454465731,2.31023016479367,2.22514582221539,25.971062,811.168884,157.408875,173.040558,1183.494263,-26.479418,"CRUZEXT"
155,17,0,41.692,4704.88,0.614449,-0.176254,0.644978,-0.418797,-0.92229,0.31832,-0.11476,4701.66,0.59989,-0.163438,0.544412,-0.563059,-0.88736,0.41846,-0.36994,2.17,2.58,2.73,2.79,3.16,3.03,3,3.83,3.2,3.91,3.97,3.89,3.76,3.82,3.71,2616,10.9,61241.696,286.496979,1001.902832,-193.144806,1.1380883796424,2.30275227044011,2.23243699926451,25.878735,811.065308,157.503403,172.462753,1183.649658,-26.059465,"CRUZEXT"
156,17,0,41.726,4704.9,0.614212,-0.176377,0.645769,-0.417872,-0.92494,0.3216,-0.11459,4701.68,0.588896,-0.155794,0.549108,-0.572197,-0.85918,0.44627,-0.35346,2.17,2.58,2.73,2.79,3.16,3.03,3,3.83,3.2,3.91,3.97,3.89,3.76,3.82,3.72,2624,10.933333,61241.729333,282.636047,1004.859314,-200.684113,1.1511998583622,2.28037815226818,2.26525181595534,25.544073,810.675354,157.843201,170.428238,1184.306274,-24.418215,"CRUZEXT"
157,17,0,41.747,4704.92,0.613958,-0.176481,0.646573,-0.416957,-0.92815,0.3269,-0.10904,4701.7,0.577492,-0.148967,0.553392,-0.581437,-0.83153,0.48202,-0.33536,2.17,2.58,2.73,2.78,3.16,3.03,3,3.83,3.2,3.91,3.97,3.89,3.76,3.82,3.71,2629,10.954167,61241.750167,282.636047,1004.859314,-200.684113,1.14877208498566,2.27795664314291,2.2658439017235,25.37429,810.453064,158.058243,169.248581,1184.702759,-23.402815,"CRUZEXT"
158,17,0,41.751,4704.94,0.613658,-0.176598,0.647397,-0.41607,-0.92859,0.32539,-0.10951,4701.72,0.565564,-0.142657,0.557571,-0.590679,-0.80409,0.52143,-0.3188,2.17,2.57,2.73,2.78,3.16,3.03,3,3.83,3.2,3.91,3.97,3.88,3.76,3.82,3.71,2630,10.958333,61241.754333,282.636047,1004.859314,-200.684113,1.1483482348537,2.27750882682485,2.26597140961298,25.340117,810.409485,158.108353,169.03595,1184.775757,-23.210724,"CRUZEXT"
159,17,0,41.786,4704.96,0.613333,-0.176734,0.64818,-0.415272,-0.9296,0.3239,-0.10728,4701.74,0.552909,-0.137037,0.561636,-0.600065,-0.78721,0.52216,-0.30886,2.17,2.58,2.73,2.79,3.16,3.03,3,3.83,3.2,3.91,3.97,3.88,3.76,3.82,3.71,2638,10.991667,61241.787667,282.636047,1004.859314,-200.684113,1.14503731053962,2.27395855498684,2.26700895178802,25.005934,810.022034,158.468246,167.375977,1185.316406,-21.710773,"CRUZEXT"
160,17,0,41.791,4704.98,0.612999,-0.176951,0.648916,-0.414523,-0.92639,0.32329,-0.1043,4701.76,0.539523,-0.13224,0.565614,-0.609515,-0.77094,0.5302,-0.30242,2.17,2.58,2.73,2.79,3.16,3.03,3,3.83,3.2,3.91,3.97,3.89,3.76,3.82,3.71,2639,10.995833,61241.791833,282.636047,1004.859314,-200.684113,1.14465889815798,2.27348532232732,2.26719392318796,24.958204,809.97229,158.509872,167.171249,1185.385376,-21.502703,"CRUZEXT"
161,17,0,41.826,4705,0.61267,-0.177144,0.649656,-0.413767,-0.92451,0.32077,-0.10052,4701.78,0.526118,-0.127594,0.569053,-0.61895,-0.78019,0.56363,-0.30947,2.17,2.58,2.73,2.79,3.16,3.03,3,3.83,3.2,3.91,3.97,3.89,3.76,3.82,3.71,2648,11.033333,61241.829333,282.636047,1004.859314,-200.684113,1.14173339078956,2.26986848195497,2.26857277417981,24.610645,809.599731,158.865662,165.601257,1185.891479,-19.93111,"CRUZEXT"
162,17,0,41.831,4705.02,0.612429,-0.17727,0.650358,-0.412966,-0.92702,0.32068,-0.10191,4701.8,0.512555,-0.122385,0.57237,-0.628253,-0.78615,0.62392,-0.32891,2.17,2.58,2.73,2.79,3.16,3.03,3,3.83,3.2,3.91,3.97,3.88,3.75,3.82,3.71,2649,11.0375,61241.8335,282.636047,1004.859314,-200.684113,1.14142794290521,2.26942708451173,2.26877956693301,24.579741,809.556702,158.905991,165.422638,1185.95166,-19.731409,"CRUZEXT"
163,17,0,41.867,4705.04,0.612204,-0.177366,0.65108,-0.412118,-0.92864,0.32321,-0.09652,4701.82,0.498721,-0.117159,0.575406,-0.637541,-0.77295,0.6137,-0.34516,2.17,2.58,2.73,2.79,3.16,3.03,3,3.83,3.2,3.91,3.97,3.89,3.76,3.82,3.71,2658,11.075,61241.871,282.636047,1004.859314,-200.684113,1.13929710573105,2.26649677438773,2.27006767138089,24.319576,809.265625,159.27504,164.106735,1186.500122,-18.267641,"CRUZEXT"
164,17,0,41.872,4705.06,0.612082,-0.17737,0.651767,-0.411212,-0.92866,0.32317,-0.0933,4701.84,0.484839,-0.111812,0.578144,-0.646667,-0.77527,0.66438,-0.34021,2.17,2.58,2.73,2.79,3.16,3.03,3,3.83,3.2,3.91,3.97,3.88,3.76,3.82,3.71,2659,11.079167,61241.875167,282.636047,1004.859314,-200.684113,1.13909537526351,2.26619577062458,2.2702126702683,24.303307,809.229675,159.314972,163.966995,1186.569092,-18.101088,"CRUZEXT"
165,17,0,41.907,4705.08,0.611926,-0.176841,0.652771,-0.410078,-0.93396,0.30751,-0.0832,4701.86,0.47073,-0.106357,0.580932,-0.655454,-0.71926,0.64978,-0.33519,2.17,2.58,2.73,2.79,3.16,3.03,3,3.83,3.2,3.91,3.97,3.89,3.76,3.82,3.71,2667,11.1125,61241.9085,282.636047,1004.859314,-200.684113,1.13821638503998,2.26412952618295,2.27159625881441,24.212812,809.003357,159.567902,163.105087,1187.087646,-16.823423,"CRUZEXT"
166,17,0,41.913,4705.1,0.611866,-0.176875,0.653354,-0.409224,-0.93464,0.33003,-0.08454,4701.88,0.456609,-0.100698,0.584145,-0.663433,-0.694,0.64882,-0.33119,2.17,2.58,2.73,2.79,3.16,3.03,3,3.83,3.2,3.91,3.97,3.88,3.76,3.82,3.71,2669,11.120833,61241.916833,282.636047,1004.859314,-200.684113,1.13805544580052,2.26366958200247,2.27193062145627,24.195467,808.965515,159.616684,162.899658,1187.236206,-16.498646,"CRUZEXT"
167,17,0,41.946,4705.12,0.611767,-0.176993,0.653858,-0.408515,-0.93487,0.31496,-0.08224,4701.9,0.442149,-0.094616,0.587799,-0.670854,-0.68314,0.67348,-0.31304,2.17,2.58,2.73,2.79,3.16,3.03,3,3.83,3.2,3.91,3.97,3.89,3.76,3.82,3.72,2676,11.15,61241.946,282.636047,1004.859314,-200.684113,1.13800164051779,2.26237997925655,2.2731742910641,24.180561,808.86908,159.758606,162.416565,1187.666138,-15.50481,"CRUZEXT"
168,17,0,41.969,4705.14,0.611653,-0.176893,0.654418,-0.407832,-0.93597,0.30308,-0.07931,4701.92,0.427093,-0.087914,0.592387,-0.677452,-0.61776,0.67775,-0.29839,2.17,2.58,2.73,2.79,3.16,3.03,3,3.83,3.2,3.91,3.97,3.89,3.76,3.82,3.71,2682,11.175,61241.971,282.636047,1004.859314,-200.684113,1.13796170525969,2.26112588700421,2.27439217323028,24.226957,808.793152,159.855667,162.001862,1188.00293,-14.614861,"CRUZEXT"
169,17,0,41.974,4705.16,0.611544,-0.176931,0.654859,-0.407271,-0.93251,0.33161,-0.08224,4701.94,0.412112,-0.081639,0.597304,-0.683174,-0.62329,0.70394,-0.27841,2.17,2.58,2.73,2.79,3.16,3.03,3,3.83,3.2,3.91,3.97,3.88,3.76,3.82,3.71,2683,11.179167,61241.975167,282.636047,1004.859314,-200.684113,1.13804330870043,2.2610314942733,2.27454909366164,24.229982,808.787415,159.869202,161.96315,1188.07312,-14.487844,"CRUZEXT"
170,17,0,42.006,4705.18,0.611478,-0.177075,0.65522,-0.406726,-0.93152,0.31613,-0.08173,4701.96,0.397203,-0.07613,0.602636,-0.687942,-0.5995,0.71974,-0.26993,2.17,2.58,2.73,2.79,3.16,3.03,3,3.83,3.2,3.91,3.97,3.88,3.75,3.82,3.71,2691,11.2125,61242.0085,282.636047,1004.859314,-200.684113,1.1387393707483,2.26022554408513,2.27588756611368,24.345154,808.723206,159.947021,161.704849,1188.562866,-13.513121,"CRUZEXT"
171,17,0,42.028,4705.2,0.611461,-0.177255,0.655529,-0.406175,-0.93161,0.31308,-0.07954,4701.98,0.382643,-0.071183,0.607678,-0.692275,-0.58805,0.72951,-0.25743,2.17,2.58,2.73,2.79,3.16,3.03,3,3.83,3.2,3.91,3.97,3.89,3.76,3.81,3.71,2696,11.233333,61242.029333,282.636047,1004.859314,-200.684113,1.13944371971215,2.25959173370299,2.27705987974643,24.439165,808.715881,159.961227,161.600906,1188.860474,-12.80729,"CRUZEXT"
172,17,0,42.033,4705.22,0.611355,-0.176919,0.656074,-0.4056,-0.93347,0.31789,-0.08247,4702,0.368461,-0.066941,0.611746,-0.696795,-0.55809,0.72679,-0.25588,2.17,2.58,2.73,2.79,3.16,3.03,3,3.83,3.2,3.91,3.97,3.88,3.76,3.82,3.71,2697,11.2375,61242.0335,282.636047,1004.859314,-200.684113,1.13959261569493,2.25950741255286,2.27725819069958,24.464836,808.71814,159.95433,161.592346,1188.914185,-12.689508,"CRUZEXT"
173,17,0,42.068,4705.24,0.611457,-0.176931,0.656285,-0.405099,-0.93492,0.317,-0.07919,4702.02,0.354672,-0.063573,0.615308,-0.701116,-0.56744,0.74395,-0.24923,2.17,2.58,2.73,2.79,3.16,3.03,3,3.83,3.2,3.91,3.97,3.89,3.76,3.82,3.71,2706,11.275,61242.071,282.636047,1004.859314,-200.684113,1.1405854965486,2.25874908242562,2.2787741319141,24.670942,808.772217,159.960205,161.46167,1189.341309,-11.744625,"CRUZEXT"
174,17,0,42.073,4705.26,0.611509,-0.177006,0.656482,-0.40467,-0.93563,0.31513,-0.07671,4702.04,0.341801,-0.060358,0.617912,-0.705489,-0.5369,0.74965,-0.24836,2.17,2.58,2.73,2.79,3.16,3.03,3,3.83,3.2,3.91,3.97,3.89,3.75,3.82,3.71,2707,11.279167,61242.075167,282.636047,1004.859314,-200.684113,1.14060609224467,2.25865642244326,2.27888193773914,24.69178,808.775818,159.963242,161.42482,1189.384888,-11.654882,"CRUZEXT"
175,17,0,42.106,4705.28,0.61157,-0.176939,0.65668,-0.404284,-0.93462,0.30964,-0.08371,4702.06,0.329962,-0.057099,0.620245,-0.709338,-0.50596,0.74044,-0.2518,2.17,2.58,2.73,2.79,3.16,3.03,3,3.83,3.2,3.91,3.97,3.88,3.75,3.82,3.71,2715,11.3125,61242.1085,282.636047,1004.859314,-200.684113,1.14083639417265,2.25860679796465,2.27910786325984,24.857479,808.787781,160.017319,161.168884,1189.856201,-11.110616,"CRUZEXT"
176,17,0,42.112,4705.3,0.611654,-0.176819,0.656834,-0.40396,-0.9284,0.32952,-0.08929,4702.08,0.318844,-0.053802,0.622365,-0.712815,-0.46268,0.75588,-0.24386,2.17,2.58,2.73,2.79,3.16,3.03,3,3.83,3.2,3.91,3.97,3.88,3.75,3.82,3.71,2716,11.316667,61242.112667,282.636047,1004.859314,-200.684113,1.14084173259291,2.25853706116825,2.27918118935966,24.878204,808.788757,160.024918,161.134979,1189.894287,-11.039261,"CRUZEXT"
177,17,0,42.148,4705.32,0.611693,-0.176813,0.657043,-0.403564,-0.92458,0.31501,-0.09065,4702.1,0.308178,-0.051079,0.624379,-0.715939,-0.45848,0.7685,-0.22717,2.17,2.58,2.73,2.79,3.16,3.03,3,3.83,3.2,3.91,3.97,3.89,3.76,3.82,3.71,2725,11.354167,61242.150167,282.636047,1004.859314,-200.684113,1.14080021126696,2.25807333808569,2.27960963248759,25.010044,808.804321,160.146912,160.891632,1190.143433,-10.581633,"CRUZEXT"
178,17,0,42.153,4705.34,0.611659,-0.176538,0.65738,-0.403187,-0.92683,0.31576,-0.08742,4702.12,0.29835,-0.048809,0.626032,-0.718811,-0.43996,0.77734,-0.22532,2.17,2.58,2.73,2.79,3.16,3.03,3,3.83,3.2,3.91,3.97,3.89,3.76,3.82,3.71,2726,11.358333,61242.154333,282.636047,1004.859314,-200.684113,1.14076494111626,2.25803020109592,2.27962539580951,25.013136,808.805054,160.167419,160.856537,1190.172852,-10.53796,"CRUZEXT"
179,17,0,42.186,4705.36,0.611717,-0.176463,0.657518,-0.402906,-0.93033,0.32171,-0.08984,4702.14,0.289235,-0.046438,0.627077,-0.721777,-0.43084,0.80811,-0.22294,2.17,2.58,2.73,2.79,3.16,3.03,3,3.83,3.2,3.91,3.97,3.89,3.76,3.82,3.71,2734,11.391667,61242.187667,282.636047,1004.859314,-200.684113,1.14059097655167,2.2578025051802,2.27971792433838,25.062803,808.792725,160.242096,160.638229,1190.383179,-10.248768,"CRUZEXT"
180,17,0,42.206,4705.38,0.6117,-0.17625,0.657848,-0.402487,-0.93246,0.29956,-0.08575,4702.16,0.280973,-0.044539,0.627939,-0.724405,-0.40395,0.82828,-0.21495,2.17,2.58,2.73,2.79,3.16,3.03,3,3.83,3.2,3.91,3.97,3.89,3.76,3.82,3.71,2739,11.4125,61242.2085,282.636047,1004.859314,-200.684113,1.14044246232842,2.25769426383441,2.27971139356407,25.067766,808.791687,160.262238,160.495987,1190.514893,-10.089868,"CRUZEXT"
181,17,0,42.212,4705.4,0.611704,-0.176022,0.658169,-0.402055,-0.92908,0.3197,-0.08665,4702.18,0.272253,-0.043028,0.628956,-0.726939,-0.39652,0.84394,-0.22545,2.17,2.58,2.73,2.79,3.16,3.03,3,3.83,3.2,3.91,3.97,3.89,3.76,3.82,3.71,2740,11.416667,61242.212667,282.636047,1004.859314,-200.684113,1.14042803620008,2.25768457929411,2.27970993419957,25.069237,808.782532,160.260712,160.473038,1190.541748,-10.060372,"CRUZEXT"
182,17,0,42.247,4705.42,0.611729,-0.175906,0.658422,-0.401654,-0.93152,0.30976,-0.08493,4702.2,0.264241,-0.041515,0.629699,-0.729337,-0.38925,0.85772,-0.23356,2.17,2.58,2.73,2.79,3.16,3.03,3,3.83,3.2,3.91,3.97,3.89,3.76,3.82,3.71,2749,11.454167,61242.250167,282.636047,1004.859314,-200.684113,1.1401941132121,2.25767449010958,2.27954041955116,25.040154,808.767395,160.206619,160.287552,1190.726685,-9.905884,"CRUZEXT"
183,17,0,42.252,4705.44,0.611717,-0.175827,0.658638,-0.401352,-0.93197,0.3072,-0.08046,4702.22,0.25659,-0.0398,0.630188,-0.731738,-0.36836,0.84882,-0.23465,2.17,2.58,2.73,2.79,3.16,3.03,3,3.83,3.2,3.91,3.97,3.9,3.77,3.81,3.71,2750,11.458333,61242.254333,282.636047,1004.859314,-200.684113,1.14017135343425,2.25766642810748,2.2795309479015,25.028824,808.77179,160.203766,160.276993,1190.731689,-9.90098,"CRUZEXT"
184,17,0,42.286,4705.46,0.611704,-0.17576,0.658806,-0.401126,-0.93326,0.30399,-0.08351,4702.24,0.249183,-0.037865,0.630667,-0.733984,-0.35899,0.89844,-0.23322,2.17,2.58,2.73,2.79,3.16,3.03,3,3.83,3.2,3.91,3.97,3.91,3.77,3.81,3.71,2758,11.491667,61242.287667,282.636047,1004.859314,-200.684113,1.1401043817761,2.25780369187696,2.27934331884566,24.980677,808.768555,160.116943,160.238571,1190.794067,-9.910654,"CRUZEXT"
185,17,0,42.308,4705.48,0.611651,-0.175735,0.658925,-0.401021,-0.93042,0.31658,-0.08104,4702.26,0.241821,-0.035592,0.631263,-0.736045,-0.36159,0.91075,-0.23202,2.17,2.58,2.73,2.79,3.16,3.03,3,3.83,3.2,3.91,3.97,3.91,3.77,3.82,3.71,2763,11.5125,61242.3085,282.636047,1004.859314,-200.684113,1.14002815947643,2.25787145623525,2.2792175390909,24.951269,808.767944,160.058807,160.220261,1190.806396,-9.941763,"CRUZEXT"
186,17,0,42.313,4705.5,0.61171,-0.175639,0.658853,-0.401092,-0.92969,0.31602,-0.08114,4702.28,0.234354,-0.032906,0.631565,-0.738323,-0.35212,0.94125,-0.22888,2.17,2.58,2.73,2.79,3.16,3.03,3,3.83,3.2,3.91,3.96,3.92,3.78,3.81,3.72,2765,11.520833,61242.316833,282.636047,1004.859314,-200.684113,1.13997777342496,2.25786542296567,2.27918483226429,24.949938,808.766479,160.027863,160.208832,1190.802002,-9.952149,"CRUZEXT"
187,17,0,42.347,4705.52,0.611733,-0.175594,0.658922,-0.400964,-0.93145,0.31642,-0.07914,4702.3,0.226739,-0.030102,0.631884,-0.740544,-0.34909,0.94604,-0.21826,2.17,2.58,2.73,2.79,3.16,3.03,3,3.83,3.2,3.91,3.96,3.92,3.78,3.81,3.72,2773,11.554167,61242.350167,282.636047,1004.859314,-200.684113,1.14008965862774,2.25807795507053,2.27905980811965,24.962887,808.822815,159.865479,160.252579,1190.828979,-10.001709,"CRUZEXT"
188,17,0,42.352,4705.54,0.611789,-0.175473,0.658968,-0.400855,-0.93223,0.31412,-0.07551,4702.32,0.219121,-0.02673,0.631778,-0.743053,-0.32942,0.93328,-0.20809,2.17,2.58,2.73,2.79,3.16,3.03,3,3.83,3.2,3.91,3.96,3.92,3.79,3.81,3.73,2774,11.558333,61242.354333,282.636047,1004.859314,-200.684113,1.1401086846462,2.25813638440921,2.27901641994757,24.970205,808.833618,159.838577,160.259369,1190.8396,-10.014052,"CRUZEXT"
189,17,0,42.386,4705.56,0.611883,-0.175218,0.659082,-0.400636,-0.93485,0.3077,-0.072,4702.34,0.2119,-0.023252,0.63182,-0.745226,-0.32506,0.93818,-0.20937,2.17,2.58,2.73,2.79,3.16,3.03,3,3.83,3.2,3.91,3.96,3.92,3.79,3.81,3.73,2782,11.591667,61242.387667,282.636047,1004.859314,-200.684113,1.14042104362192,2.25864867400481,2.27874762804147,25.03688,808.966431,159.636337,160.330429,1190.974121,-10.054973,"CRUZEXT"
190,17,0,42.391,4705.58,0.612059,-0.174968,0.659055,-0.40052,-0.93542,0.32279,-0.07591,4702.36,0.204242,-0.019381,0.631983,-0.747333,-0.31093,0.92993,-0.21497,2.17,2.58,2.73,2.79,3.16,3.03,3,3.83,3.2,3.91,3.96,3.92,3.79,3.81,3.73,2783,11.595833,61242.391833,282.636047,1004.859314,-200.684113,1.1404761679216,2.25869876165144,2.27874020170068,25.053534,808.975647,159.609406,160.343185,1190.988403,-10.053618,"CRUZEXT"
191,17,0,42.426,4705.6,0.612177,-0.174692,0.659048,-0.400472,-0.93314,0.3182,-0.07347,4702.38,0.196897,-0.015518,0.632071,-0.749317,-0.28285,0.94036,-0.21045,2.17,2.58,2.73,2.79,3.16,3.03,3,3.83,3.2,3.91,3.96,3.93,3.8,3.8,3.74,2792,11.633333,61242.429333,282.636047,1004.859314,-200.684113,1.14115025854766,2.25927101737377,2.27868895288016,25.222977,809.105286,159.425903,160.494278,1191.161499,-10.020494,"CRUZEXT"
192,17,0,42.448,4705.62,0.61234,-0.174498,0.658979,-0.400421,-0.92569,0.32164,-0.07671,4702.4,0.189436,-0.011504,0.632441,-0.751,-0.27155,0.92477,-0.21031,2.17,2.58,2.73,2.79,3.16,3.03,3,3.83,3.2,3.91,3.96,3.93,3.8,3.8,3.74,2797,11.654167,61242.450167,282.636047,1004.859314,-200.684113,1.14162523218112,2.25951475506828,2.27881081614168,25.335417,809.190125,159.329315,160.595337,1191.255737,-9.953386,"CRUZEXT"
193,17,0,42.452,4705.64,0.612491,-0.174327,0.658903,-0.400391,-0.928,0.32242,-0.07928,4702.42,0.181326,-0.007102,0.632267,-0.753199,-0.27457,0.95736,-0.19669,2.18,2.58,2.73,2.79,3.16,3.03,3,3.82,3.2,3.91,3.96,3.94,3.81,3.8,3.75,2798,11.658333,61242.454333,282.636047,1004.859314,-200.684113,1.14172210995136,2.25955617101136,2.2788438737185,25.359097,809.206055,159.306335,160.613968,1191.276123,-9.934757,"CRUZEXT"
194,17,0,42.487,4705.66,0.612677,-0.174059,0.658766,-0.400447,-0.93161,0.32082,-0.08093,4702.44,0.173952,-0.002739,0.632035,-0.755159,-0.24484,0.93316,-0.2059,2.18,2.58,2.73,2.79,3.16,3.03,3,3.82,3.2,3.91,3.96,3.94,3.81,3.8,3.75,2806,11.691667,61242.487667,282.636047,1004.859314,-200.684113,1.14252359069003,2.25995335780929,2.27906266443208,25.546289,809.38324,159.180099,160.747543,1191.488892,-9.760343,"CRUZEXT"
195,17,0,42.492,4705.68,0.612912,-0.173853,0.658643,-0.40038,-0.93293,0.31927,-0.08243,4702.46,0.166733,0.001345,0.631932,-0.756875,-0.22555,0.93033,-0.20419,2.18,2.58,2.73,2.79,3.16,3.03,3,3.83,3.2,3.91,3.96,3.95,3.82,3.8,3.75,2808,11.7,61242.496,282.636047,1004.859314,-200.684113,1.14273892794405,2.26002577726774,2.27915535582255,25.596907,809.424622,159.153122,160.778854,1191.54541,-9.698644,"CRUZEXT"
196,17,0,42.526,4705.7,0.613186,-0.173584,0.658471,-0.40036,-0.93152,0.32073,-0.08433,4702.48,0.15959,0.005366,0.6321,-0.758256,-0.20508,0.92528,-0.20007,2.17,2.58,2.73,2.79,3.16,3.03,3,3.83,3.2,3.91,3.96,3.95,3.83,3.8,3.75,2816,11.733333,61242.529333,282.636047,1004.859314,-200.684113,1.14361678360295,2.26018799057324,2.27966466326015,25.80094,809.572449,159.103348,160.865463,1191.809204,-9.352757,"CRUZEXT"
197,17,0,42.547,4705.72,0.613422,-0.173471,0.658318,-0.400299,-0.92916,0.31813,-0.08728,4702.5,0.152722,0.009135,0.632318,-0.759451,-0.19538,0.93096,-0.19946,2.17,2.58,2.73,2.79,3.16,3.02,3,3.83,3.2,3.91,3.97,3.96,3.83,3.8,3.76,2821,11.754167,61242.550167,282.636047,1004.859314,-200.684113,1.14409762514632,2.26020336192284,2.28001613942943,25.910513,809.65564,159.088715,160.883667,1191.982422,-9.100573,"CRUZEXT"
198,17,0,42.551,4705.74,0.61364,-0.173416,0.65813,-0.400297,-0.92555,0.32047,-0.08728,4702.52,0.145957,0.01286,0.632401,-0.760658,-0.17139,0.93011,-0.20466,2.18,2.58,2.73,2.79,3.17,3.03,3,3.82,3.2,3.91,3.98,3.96,3.84,3.79,3.76,2822,11.758333,61242.554333,282.636047,1004.859314,-200.684113,1.14419883452769,2.26022505192027,2.28007174790882,25.930534,809.6651,159.091934,160.896347,1192.009521,-9.065454,"CRUZEXT"
199,17,0,42.586,4705.76,0.613847,-0.173314,0.657887,-0.400423,-0.92503,0.3189,-0.08639,4702.54,0.139308,0.016355,0.63245,-0.761796,-0.15914,0.92749,-0.20539,2.18,2.58,2.73,2.79,3.16,3.03,3,3.83,3.19,3.91,3.99,3.97,3.85,3.79,3.76,2830,11.791667,61242.587667,282.636047,1004.859314,-200.684113,1.14486437824301,2.26018115505851,2.28062227978913,26.045916,809.754456,159.096527,160.915604,1192.244385,-8.691721,"CRUZEXT"
200,17,0,42.592,4705.78,0.614019,-0.173366,0.657658,-0.400514,-0.92637,0.31557,-0.08981,4702.56,0.13303,0.019813,0.632409,-0.762869,-0.13046,0.92786,-0.20585,2.18,2.58,2.73,2.79,3.16,3.03,3,3.83,3.18,3.91,4,3.97,3.85,3.79,3.77,2832,11.8,61242.596,282.636047,1004.859314,-200.684113,1.1450352070295,2.26014544524916,2.28078774630477,26.065405,809.774414,159.100952,160.922714,1192.295898,-8.593639,"CRUZEXT"
201,17,0,42.628,4705.8,0.614209,-0.173425,0.657347,-0.400707,-0.92618,0.31503,-0.09382,4702.58,0.126878,0.022882,0.63241,-0.76383,-0.12587,0.94737,-0.19979,2.18,2.58,2.73,2.79,3.16,3.03,3,3.82,3.16,3.92,4.01,3.97,3.86,3.78,3.77,2840,11.833333,61242.629333,282.636047,1004.859314,-200.684113,1.14585035646574,2.26026014669702,2.28129364212917,26.11375,809.855286,159.095886,160.98288,1192.566772,-8.22962,"CRUZEXT"
202,17,0,42.633,4705.82,0.614322,-0.173523,0.65714,-0.400831,-0.92831,0.31471,-0.0922,4702.6,0.120661,0.025763,0.632478,-0.764688,-0.10713,0.93856,-0.19216,2.18,2.58,2.73,2.79,3.16,3.03,2.99,3.83,3.15,3.92,4.03,3.97,3.87,3.78,3.77,2841,11.8375,61242.6335,282.636047,1004.859314,-200.684113,1.14595875290816,2.2603008178706,2.28133560732666,26.116079,809.861511,159.092575,160.989548,1192.610718,-8.18467,"CRUZEXT"
203,17,0,42.666,4705.84,0.614433,-0.17359,0.656978,-0.400896,-0.92862,0.31416,-0.08866,4702.62,0.114833,0.028138,0.632016,-0.765883,-0.09448,0.95379,-0.1891,2.18,2.58,2.73,2.79,3.16,3.03,2.99,3.83,3.14,3.92,4.04,3.97,3.88,3.78,3.78,2849,11.870833,61242.666833,282.636047,1004.859314,-200.684113,1.14695227965568,2.26066810410777,2.28172491401414,26.135193,809.929443,159.041565,161.069504,1192.984131,-7.800471,"CRUZEXT"
204,17,0,42.671,4705.86,0.614682,-0.173561,0.656692,-0.400997,-0.9289,0.31325,-0.09258,4702.64,0.108923,0.029968,0.631576,-0.76704,-0.07881,0.933,-0.1925,2.17,2.58,2.73,2.79,3.16,3.03,2.99,3.83,3.14,3.92,4.05,3.97,3.89,3.78,3.78,2850,11.875,61242.671,282.636047,1004.859314,-200.684113,1.1470750448813,2.26071604273026,2.28177038386333,26.14356,809.933838,159.031525,161.075577,1193.036865,-7.747425,"CRUZEXT"
205,17,0,42.707,4705.88,0.614833,-0.17353,0.656642,-0.400861,-0.92955,0.31356,-0.08831,4702.66,0.102914,0.031157,0.631301,-0.768048,-0.05019,0.91638,-0.18291,2.17,2.58,2.73,2.79,3.16,3.03,2.99,3.83,3.14,3.92,4.06,3.97,3.9,3.78,3.78,2859,11.9125,61242.7085,282.636047,1004.859314,-200.684113,1.14879131227026,2.26130687319977,2.28248257157562,26.156338,809.985901,158.935074,161.32341,1193.505737,-7.245263,"CRUZEXT"
206,17,0,42.713,4705.9,0.615042,-0.173446,0.656592,-0.400658,-0.9293,0.30988,-0.08932,4702.68,0.096851,0.031685,0.630908,-0.769137,-0.04246,0.92235,-0.16856,2.17,2.58,2.73,2.79,3.16,3.03,2.99,3.83,3.14,3.92,4.07,3.97,3.91,3.78,3.79,2861,11.920833,61242.716833,282.636047,1004.859314,-200.684113,1.14917805159486,2.26142333277495,2.28265902592416,26.164103,809.996521,158.923462,161.390259,1193.590942,-7.145582,"CRUZEXT"
207,17,0,42.748,4705.92,0.615215,-0.17335,0.656602,-0.400418,-0.92918,0.3121,-0.08765,4702.7,0.091188,0.031974,0.630354,-0.77027,-0.05948,0.95265,-0.1765,2.17,2.58,2.73,2.79,3.16,3.03,2.98,3.83,3.15,3.92,4.08,3.97,3.92,3.78,3.79,2869,11.954167,61242.750167,282.636047,1004.859314,-200.684113,1.15039620643529,2.26167076943628,2.28333193706113,26.225752,810.021729,158.940842,161.59259,1193.845825,-6.791148,"CRUZEXT"
208,17,0,42.754,4705.94,0.615336,-0.17332,0.656623,-0.40021,-0.92643,0.32173,-0.08983,4702.72,0.085817,0.032444,0.629883,-0.771253,-0.08219,0.96132,-0.20879,2.17,2.58,2.73,2.79,3.16,3.03,2.98,3.83,3.16,3.92,4.09,3.96,3.92,3.77,3.79,2870,11.958333,61242.754333,282.636047,1004.859314,-200.684113,1.15047324152462,2.26163956891868,2.28342092437608,26.237284,810.022827,158.950394,161.598953,1193.861328,-6.747952,"CRUZEXT"
209,17,0,42.787,4705.96,0.615482,-0.173157,0.656588,-0.400114,-0.9239,0.32504,-0.08782,4702.74,0.08095,0.033239,0.629591,-0.771983,-0.06088,0.95611,-0.23928,2.17,2.58,2.73,2.79,3.16,3.03,2.97,3.83,3.16,3.92,4.09,3.96,3.93,3.77,3.79,2878,11.991667,61242.787667,282.636047,1004.859314,-200.684113,1.15123050413139,2.2615965031981,2.28403347860286,26.323616,810.08429,159.074936,161.698486,1194.016602,-6.44095,"CRUZEXT"
210,17,0,42.794,4705.98,0.615661,-0.173177,0.656527,-0.399929,-0.92814,0.32317,-0.09066,4702.76,0.076615,0.034284,0.629296,-0.772619,-0.04189,0.95272,-0.24637,2.17,2.58,2.73,2.79,3.16,3.03,2.96,3.83,3.18,3.92,4.1,3.96,3.93,3.76,3.79,2880,12,61242.796,282.636047,1004.859314,-200.684113,1.1514038336041,2.26159943375125,2.28416087043536,26.342487,810.109009,159.115479,161.709244,1194.073975,-6.354115,"CRUZEXT"
211,17,0,42.827,4706,0.615827,-0.173135,0.656364,-0.399959,-0.93115,0.32049,-0.09265,4702.78,0.072723,0.03542,0.628976,-0.773205,-0.03955,0.94484,-0.23594,2.17,2.58,2.73,2.79,3.16,3.04,2.96,3.83,3.19,3.92,4.1,3.96,3.94,3.76,3.79,2888,12.033333,61242.829333,282.636047,1004.859314,-200.684113,1.15196375758739,2.26138678903875,2.28479247809741,26.456333,810.159058,159.255402,161.717514,1194.250244,-5.981069,"CRUZEXT"
212,17,0,42.834,4706.02,0.615929,-0.173289,0.65623,-0.399956,-0.93035,0.31522,-0.09054,4702.8,0.069586,0.036694,0.628615,-0.773727,-0.02393,0.94995,-0.2172,2.17,2.58,2.73,2.79,3.16,3.04,2.96,3.83,3.2,3.92,4.11,3.96,3.94,3.76,3.8,2890,12.041667,61242.837667,282.636047,1004.859314,-200.684113,1.15206462740762,2.26134477565757,2.28490987902065,26.495729,810.167358,159.285187,161.703934,1194.30481,-5.888682,"CRUZEXT"
213,17,0,42.868,4706.04,0.615966,-0.173497,0.656087,-0.400042,-0.92916,0.3126,-0.08868,4702.82,0.066562,0.03797,0.628647,-0.773906,-0.01742,0.94191,-0.2116,2.17,2.58,2.73,2.79,3.16,3.04,2.96,3.84,3.2,3.92,4.11,3.95,3.95,3.75,3.8,2898,12.075,61242.871,282.636047,1004.859314,-200.684113,1.152466229351,2.26113289534393,2.2854213634903,26.612709,810.232544,159.374878,161.663086,1194.491333,-5.531798,"CRUZEXT"
214,17,0,42.874,4706.06,0.615985,-0.173683,0.655924,-0.400201,-0.93169,0.31184,-0.08904,4702.84,0.063798,0.038841,0.62913,-0.773703,-0.00255,0.93401,-0.20966,2.17,2.58,2.73,2.79,3.16,3.04,2.95,3.84,3.21,3.92,4.11,3.95,3.95,3.75,3.8,2899,12.079167,61242.875167,282.636047,1004.859314,-200.684113,1.15250879707682,2.26110618087254,2.28547978169613,26.622372,810.241272,159.38942,161.655884,1194.514648,-5.488349,"CRUZEXT"
215,17,0,42.908,4706.08,0.615941,-0.173924,0.65582,-0.400335,-0.93063,0.3091,-0.09199,4702.86,0.061396,0.039568,0.629877,-0.773253,0.00382,0.91521,-0.20119,2.17,2.58,2.73,2.79,3.16,3.04,2.95,3.84,3.22,3.92,4.1,3.95,3.95,3.75,3.8,2907,12.1125,61242.9085,282.636047,1004.859314,-200.684113,1.15273314090652,2.26081819536918,2.28593356977846,26.710108,810.297546,159.407059,161.553848,1194.704224,-5.122868,"CRUZEXT"
216,17,0,42.915,4706.1,0.615961,-0.174124,0.655635,-0.40052,-0.93093,0.3077,-0.09059,4702.88,0.05996,0.039904,0.63066,-0.77271,-0.00696,0.91009,-0.21085,2.17,2.58,2.73,2.79,3.16,3.04,2.95,3.84,3.23,3.92,4.11,3.95,3.96,3.75,3.8,2909,12.120833,61242.916833,282.636047,1004.859314,-200.684113,1.15275169651991,2.26078275608357,2.28598261815269,26.73782,810.302856,159.389526,161.526535,1194.746826,-5.059537,"CRUZEXT"
217,17,0,42.95,4706.12,0.615983,-0.174266,0.655534,-0.400589,-0.9314,0.30777,-0.09124,4702.9,0.059473,0.040128,0.631194,-0.7723,0.01416,0.89364,-0.21636,2.17,2.58,2.73,2.79,3.16,3.05,2.94,3.84,3.24,3.91,4.11,3.95,3.96,3.74,3.8,2917,12.154167,61242.950167,282.636047,1004.859314,-200.684113,1.15274514107528,2.26063524908408,2.28612396772677,26.739874,810.317932,159.343307,161.455673,1194.821167,-4.916113,"CRUZEXT"
218,17,0,42.961,4706.14,0.616007,-0.17434,0.65548,-0.400607,-0.93276,0.30389,-0.09586,4702.92,0.059631,0.039992,0.631465,-0.772073,0.0178,0.88693,-0.21519,2.17,2.58,2.73,2.79,3.16,3.05,2.94,3.84,3.24,3.91,4.11,3.94,3.96,3.74,3.81,2920,12.166667,61242.962667,282.636047,1004.859314,-200.684113,1.1525438753217,2.26055230325353,2.28605535511422,26.736689,810.296387,159.333603,161.383987,1194.828369,-4.904469,"CRUZEXT"
219,17,0,42.987,4706.16,0.616262,-0.174419,0.655067,-0.400856,-0.92707,0.30458,-0.09607,4702.94,0.060892,0.039891,0.631766,-0.771734,-0.00117,0.89685,-0.21962,2.17,2.57,2.73,2.79,3.16,3.05,2.94,3.84,3.25,3.91,4.11,3.94,3.96,3.74,3.81,2926,12.191667,61242.987667,282.636047,1004.859314,-200.684113,1.15208940818977,2.26042071643607,2.28584497396195,26.703312,810.239746,159.350967,161.260315,1194.797607,-4.952358,"CRUZEXT"
220,17,0,43.01,4706.18,0.616123,-0.174542,0.655106,-0.400954,-0.92184,0.31119,-0.09619,4702.96,0.063274,0.039721,0.632332,-0.771087,0.00288,0.88757,-0.23921,2.17,2.57,2.73,2.79,3.16,3.05,2.94,3.83,3.26,3.9,4.11,3.93,3.96,3.73,3.81,2932,12.216667,61243.012667,282.636047,1004.859314,-200.684113,1.1515691004228,2.26038005067521,2.28549469169985,26.62269,810.195984,159.340851,161.154526,1194.731812,-5.089456,"CRUZEXT"
221,17,0,43.017,4706.2,0.616035,-0.174563,0.655053,-0.401165,-0.92416,0.31414,-0.09937,4702.98,0.066294,0.039332,0.633052,-0.770262,0.00912,0.88471,-0.2277,2.17,2.57,2.73,2.79,3.16,3.05,2.93,3.83,3.26,3.9,4.11,3.93,3.96,3.73,3.81,2934,12.225,61243.021,282.636047,1004.859314,-200.684113,1.15132587470049,2.26033029091552,2.28536130159003,26.592009,810.168945,159.335495,161.108948,1194.687988,-5.152864,"CRUZEXT"
222,17,0,43.048,4706.22,0.615833,-0.174667,0.655166,-0.401246,-0.93107,0.31055,-0.09576,4703,0.070122,0.038854,0.633593,-0.769502,-0.00094,0.90374,-0.20475,2.17,2.57,2.73,2.79,3.16,3.05,2.93,3.83,3.27,3.89,4.11,3.93,3.96,3.73,3.81,2941,12.254167,61243.050167,282.636047,1004.859314,-200.684113,1.15065784556999,2.26038816271667,2.28480156902133,26.439804,810.10199,159.296738,161.042603,1194.520874,-5.464781,"CRUZEXT"
223,17,0,43.054,4706.24,0.61561,-0.174723,0.655295,-0.401354,-0.93171,0.30779,-0.09565,4703.02,0.07462,0.038061,0.634212,-0.768608,-0.00483,0.90855,-0.20865,2.18,2.58,2.73,2.79,3.16,3.05,2.92,3.83,3.27,3.89,4.11,3.92,3.96,3.73,3.81,2942,12.258333,61243.054333,282.636047,1004.859314,-200.684113,1.15059732303625,2.26039395721465,2.28475027689313,26.412878,810.089661,159.286896,161.049057,1194.48645,-5.513139,"CRUZEXT"
224,17,0,43.086,4706.26,0.61539,-0.174715,0.655412,-0.401504,-0.92894,0.30917,-0.09558,4703.04,0.079485,0.037115,0.635021,-0.767498,-0.01029,0.90276,-0.20867,2.18,2.57,2.73,2.79,3.16,3.05,2.92,3.83,3.28,3.89,4.1,3.91,3.97,3.72,3.81,2950,12.291667,61243.087667,282.636047,1004.859314,-200.684113,1.15012329375597,2.26069016851519,2.28409951849268,26.212555,809.963501,159.19809,161.14032,1194.211304,-6.012663,"CRUZEXT"
225,17,0,43.107,4706.28,0.615134,-0.174677,0.655643,-0.401535,-0.92759,0.30934,-0.09337,4703.06,0.085056,0.036027,0.635707,-0.766384,-0.02947,0.9243,-0.20365,2.19,2.57,2.73,2.8,3.16,3.04,2.91,3.83,3.28,3.88,4.1,3.91,3.96,3.72,3.81,2955,12.3125,61243.1085,282.636047,1004.859314,-200.684113,1.14989719529648,2.26093695044445,2.28368427955039,26.098858,809.874634,159.12677,161.246796,1194.006348,-6.374819,"CRUZEXT"
226,17,0,43.113,4706.3,0.614958,-0.174518,0.655815,-0.401593,-0.92592,0.31065,-0.08997,4703.08,0.090954,0.034653,0.63628,-0.765294,-0.04232,0.92144,-0.20405,2.2,2.57,2.73,2.8,3.16,3.04,2.91,3.83,3.28,3.88,4.1,3.91,3.96,3.72,3.81,2957,12.320833,61243.116833,282.636047,1004.859314,-200.684113,1.14979959548214,2.26100297582474,2.28354518466638,26.047583,809.85199,159.094833,161.284103,1193.922119,-6.508125,"CRUZEXT"
227,17,0,43.149,4706.32,0.614768,-0.174357,0.656064,-0.401547,-0.92969,0.31231,-0.09183,4703.1,0.097175,0.033245,0.637004,-0.763988,-0.05685,0.92737,-0.20025,2.2,2.57,2.74,2.81,3.16,3.04,2.9,3.83,3.28,3.88,4.1,3.9,3.96,3.72,3.81,2965,12.354167,61243.150167,282.636047,1004.859314,-200.684113,1.14933499189793,2.2610942465263,2.28310416100954,25.849504,809.765991,158.966873,161.3582,1193.631714,-6.926747,"CRUZEXT"
228,17,0,43.16,4706.34,0.614633,-0.174115,0.656304,-0.401465,-0.93349,0.31241,-0.08881,4703.12,0.104458,0.032128,0.637967,-0.76227,-0.09987,0.93792,-0.20011,2.21,2.56,2.74,2.81,3.16,3.04,2.9,3.83,3.28,3.87,4.1,3.9,3.96,3.72,3.81,2968,12.366667,61243.162667,282.636047,1004.859314,-200.684113,1.14908459984981,2.26120395977327,2.28280625167688,25.784496,809.743347,158.923157,161.337814,1193.58313,-7.069169,"CRUZEXT"
229,17,0,43.186,4706.36,0.614527,-0.173803,0.656525,-0.401402,-0.93094,0.31721,-0.08597,4703.14,0.113244,0.031126,0.638617,-0.76051,-0.12981,0.92252,-0.20872,2.21,2.56,2.74,2.82,3.16,3.04,2.89,3.83,3.29,3.87,4.1,3.9,3.96,3.71,3.81,2974,12.391667,61243.187667,282.636047,1004.859314,-200.684113,1.14848784069971,2.26162258629676,2.28193972641175,25.679501,809.702637,158.87355,161.264069,1193.542603,-7.403114,"CRUZEXT"
230,17,0,43.21,4706.38,0.6145,-0.173509,0.656719,-0.401254,-0.93039,0.31982,-0.08507,4703.16,0.124028,0.030064,0.638191,-0.759227,-0.12184,0.93609,-0.22334,2.21,2.56,2.74,2.83,3.17,3.03,2.89,3.83,3.29,3.87,4.1,3.89,3.96,3.71,3.81,2980,12.416667,61243.212667,282.636047,1004.859314,-200.684113,1.14811959539663,2.26228477805603,2.28100339221309,25.572069,809.660522,158.905563,161.323837,1193.446167,-7.866344,"CRUZEXT"
231,17,0,43.217,4706.4,0.614443,-0.173166,0.656851,-0.401273,-0.92922,0.32239,-0.08878,4703.18,0.135102,0.028596,0.63711,-0.758301,-0.0953,0.90165,-0.23866,2.2,2.57,2.75,2.84,3.17,3.03,2.89,3.83,3.29,3.87,4.1,3.89,3.96,3.71,3.81,2982,12.425,61243.221,282.636047,1004.859314,-200.684113,1.14802550702469,2.26252977424547,2.28068872383453,25.539921,809.641357,158.947098,161.367569,1193.394531,-8.046693,"CRUZEXT"
232,17,0,43.247,4706.42,0.614256,-0.17312,0.656996,-0.401342,-0.92625,0.32478,-0.09234,4703.2,0.145944,0.027538,0.636416,-0.756912,-0.10826,0.92695,-0.22792,2.2,2.58,2.75,2.85,3.17,3.03,2.88,3.83,3.29,3.87,4.1,3.88,3.96,3.7,3.81,2989,12.454167,61243.250167,282.636047,1004.859314,-200.684113,1.147807979611,2.2631985130366,2.27985924383912,25.427612,809.591919,159.111832,161.580338,1193.124634,-8.663202,"CRUZEXT"
233,17,0,43.252,4706.44,0.613878,-0.173326,0.657043,-0.401755,-0.92357,0.3276,-0.09249,4703.22,0.156412,0.026961,0.637333,-0.754066,-0.16633,0.94073,-0.21831,2.19,2.6,2.76,2.86,3.17,3.02,2.88,3.83,3.29,3.87,4.1,3.88,3.96,3.7,3.81,2990,12.458333,61243.254333,282.636047,1004.859314,-200.684113,1.14775872762502,2.26325806484444,2.27976272175004,25.412895,809.588928,159.140137,161.601532,1193.084595,-8.739422,"CRUZEXT"
234,17,0,43.287,4706.46,0.613353,-0.17365,0.657037,-0.402425,-0.92704,0.32636,-0.08937,4703.24,0.166993,0.026625,0.639079,-0.750321,-0.19156,0.9477,-0.20632,2.18,2.61,2.77,2.88,3.17,3.02,2.88,3.82,3.29,3.86,4.1,3.88,3.96,3.7,3.82,2998,12.491667,61243.287667,282.636047,1004.859314,-200.684113,1.14786661777883,2.26397948856185,2.27912692060544,25.318012,809.60083,159.211502,161.919601,1192.798218,-9.339928,"CRUZEXT"
235,17,0,43.292,4706.48,0.612878,-0.174048,0.656949,-0.403121,-0.92995,0.32089,-0.08507,4703.26,0.17767,0.025977,0.640645,-0.746547,-0.18218,0.94873,-0.18614,2.17,2.62,2.77,2.89,3.17,3.02,2.88,3.83,3.29,3.86,4.1,3.87,3.96,3.7,3.82,3000,12.5,61243.296,282.636047,1004.859314,-200.684113,1.14803374688333,2.26420356464799,2.27903057632703,25.29084,809.616394,159.208008,162.050171,1192.715332,-9.497394,"CRUZEXT"
236,17,0,43.327,4706.5,0.612529,-0.174327,0.656899,-0.40361,-0.93879,0.31377,-0.0813,4703.28,0.187904,0.024953,0.641394,-0.743427,-0.17437,0.93689,-0.15203,2.17,2.63,2.77,2.9,3.17,3.02,2.88,3.82,3.29,3.86,4.1,3.87,3.96,3.7,3.82,3008,12.533333,61243.329333,282.636047,1004.859314,-200.684113,1.14871083388887,2.26493399628723,2.27881619301087,25.233568,809.626892,159.104919,162.576035,1192.342651,-10.091908,"CRUZEXT"
237,17,0,43.332,4706.52,0.612384,-0.174349,0.656866,-0.403875,-0.93379,0.3077,-0.08107,4703.3,0.197914,0.023745,0.64183,-0.740487,-0.20789,0.9506,-0.13851,2.17,2.64,2.78,2.91,3.17,3.01,2.87,3.82,3.29,3.86,4.1,3.86,3.95,3.7,3.81,3009,12.5375,61243.3335,282.636047,1004.859314,-200.684113,1.1487585739262,2.26504342109851,2.2787433931885,25.237761,809.616821,159.084091,162.622162,1192.315186,-10.161081,"CRUZEXT"
238,17,0,43.366,4706.54,0.612332,-0.174278,0.656838,-0.404031,-0.92763,0.31339,-0.07966,4703.32,0.208258,0.022382,0.642107,-0.737445,-0.27178,0.93251,-0.15512,2.16,2.64,2.77,2.92,3.17,3.01,2.87,3.82,3.29,3.86,4.1,3.86,3.95,3.7,3.81,3017,12.570833,61243.366833,282.636047,1004.859314,-200.684113,1.14896615148784,2.2658667284952,2.27808070979582,25.226919,809.637939,158.912277,162.955322,1192.066162,-10.7493,"CRUZEXT"
239,17,0,43.387,4706.56,0.61224,-0.174077,0.656927,-0.404113,-0.92615,0.31812,-0.08043,4703.34,0.219522,0.020232,0.641382,-0.734868,-0.28421,0.90974,-0.17093,2.16,2.65,2.77,2.93,3.17,3.01,2.87,3.82,3.3,3.85,4.1,3.86,3.95,3.69,3.81,3022,12.591667,61243.387667,282.636047,1004.859314,-200.684113,1.14915534436729,2.26656973925291,2.27752353575173,25.218472,809.659912,158.784195,163.246811,1191.846436,-11.255562,"CRUZEXT"
240,17,0,43.393,4706.58,0.612309,-0.173913,0.656901,-0.404121,-0.93321,0.31798,-0.08173,4703.36,0.231361,0.017247,0.63902,-0.733367,-0.25049,0.90958,-0.15653,2.16,2.65,2.77,2.94,3.16,3,2.86,3.82,3.3,3.85,4.1,3.86,3.95,3.7,3.81,3024,12.6,61243.396,282.636047,1004.859314,-200.684113,1.149175326119,2.26677436504107,2.27733476635992,25.209261,809.665833,158.742203,163.345734,1191.745605,-11.445935,"CRUZEXT"
241,17,0,43.427,4706.6,0.612471,-0.17375,0.656685,-0.404295,-0.93229,0.31461,-0.09251,4703.38,0.242563,0.014177,0.636382,-0.732107,-0.26191,0.91527,-0.15156,2.17,2.65,2.77,2.95,3.16,2.99,2.85,3.82,3.3,3.85,4.1,3.86,3.96,3.7,3.81,3032,12.633333,61243.429333,282.636047,1004.859314,-200.684113,1.14897045680615,2.26770692587254,2.27625025364075,25.186449,809.668396,158.739838,163.73114,1191.264526,-12.383121,"CRUZEXT"
242,17,0,43.432,4706.62,0.612354,-0.173763,0.656594,-0.404615,-0.92254,0.32335,-0.09262,4703.4,0.253108,0.011245,0.635049,-0.729742,-0.29916,0.92011,-0.17545,2.17,2.65,2.76,2.97,3.15,2.98,2.85,3.81,3.3,3.85,4.1,3.86,3.96,3.7,3.81,3033,12.6375,61243.4335,282.636047,1004.859314,-200.684113,1.14901200428622,2.26784085280794,2.27614814935281,25.181913,809.673645,158.747406,163.800247,1191.203247,-12.497701,"CRUZEXT"
243,17,0,43.467,4706.64,0.612194,-0.173783,0.656459,-0.405069,-0.91694,0.34077,-0.09265,4703.42,0.263386,0.008011,0.633925,-0.72712,-0.31587,0.91012,-0.18087,2.17,2.65,2.75,2.98,3.15,2.98,2.85,3.81,3.3,3.84,4.1,3.86,3.96,3.7,3.81,3042,12.675,61243.471,282.636047,1004.859314,-200.684113,1.14936537216871,2.26910793385762,2.27515150496225,25.131489,809.750183,158.839706,164.492584,1190.544067,-13.665863,"CRUZEXT"
244,17,0,43.472,4706.66,0.612073,-0.173725,0.656259,-0.405599,-0.92665,0.33278,-0.09738,4703.44,0.273207,0.004146,0.632379,-0.724871,-0.32171,0.93305,-0.17128,2.18,2.65,2.74,3,3.14,2.97,2.84,3.81,3.29,3.84,4.1,3.87,3.96,3.7,3.82,3043,12.679167,61243.475167,282.636047,1004.859314,-200.684113,1.14943312495527,2.26925138372342,2.27505959364882,25.118275,809.762817,158.855637,164.57814,1190.46936,-13.793264,"CRUZEXT"
245,17,0,43.507,4706.68,0.611911,-0.173834,0.656113,-0.406034,-0.93537,0.32274,-0.09605,4703.46,0.281733,0.000249,0.631253,-0.722597,-0.33097,0.94936,-0.16185,2.18,2.65,2.73,3.02,3.14,2.96,2.83,3.81,3.29,3.84,4.1,3.87,3.97,3.7,3.81,3051,12.7125,61243.5085,282.636047,1004.859314,-200.684113,1.15018302263972,2.27015989751006,2.27471954651876,25.098661,809.810608,159.000397,165.326111,1189.802368,-14.740519,"CRUZEXT"
246,17,0,43.512,4706.7,0.611688,-0.17399,0.655896,-0.406652,-0.92371,0.32635,-0.09028,4703.48,0.288957,-0.002868,0.631143,-0.719829,-0.3618,0.93194,-0.18835,2.18,2.66,2.7,3.03,3.13,2.96,2.83,3.8,3.29,3.83,4.1,3.87,3.97,3.71,3.81,3052,12.716667,61243.512667,282.636047,1004.859314,-200.684113,1.15030435192846,2.27030524979954,2.27466606462653,25.106335,809.818787,159.008362,165.41983,1189.736694,-14.850366,"CRUZEXT"
247,17,0,43.547,4706.72,0.611539,-0.174171,0.655714,-0.407092,-0.91954,0.33161,-0.08761,4703.5,0.296312,-0.005565,0.631483,-0.716517,-0.44488,0.90069,-0.20647,2.18,2.66,2.67,3.05,3.13,2.95,2.83,3.8,3.29,3.83,4.1,3.87,3.97,3.71,3.82,3061,12.754167,61243.550167,282.636047,1004.859314,-200.684113,1.1509712566468,2.27160730005032,2.27386895971983,25.259853,809.935852,158.990982,166.101715,1189.220459,-15.829219,"CRUZEXT"
248,17,0,43.552,4706.74,0.611564,-0.174221,0.655544,-0.407307,-0.93082,0.32683,-0.07868,4703.52,0.305123,-0.008667,0.631461,-0.712798,-0.48043,0.88639,-0.2139,2.18,2.66,2.64,3.06,3.13,2.95,2.83,3.8,3.29,3.83,4.11,3.88,3.97,3.71,3.81,3062,12.758333,61243.554333,282.636047,1004.859314,-200.684113,1.15101363632292,2.27173058955053,2.27377773930038,25.282009,809.951843,158.97818,166.153641,1189.182739,-15.913932,"CRUZEXT"
249,17,0,43.588,4706.76,0.611676,-0.17426,0.655491,-0.407208,-0.93945,0.31574,-0.07608,4703.54,0.315262,-0.01275,0.630118,-0.709506,-0.43347,0.8754,-0.22628,2.18,2.66,2.61,3.07,3.13,2.95,2.83,3.8,3.29,3.83,4.11,3.88,3.99,3.72,3.81,3071,12.795833,61243.591833,282.636047,1004.859314,-200.684113,1.15180711582006,2.27337092347393,2.27273621734206,25.464811,810.101257,158.801956,166.817444,1188.81543,-16.865932,"CRUZEXT"
250,17,0,43.594,4706.78,0.611855,-0.174133,0.655376,-0.407177,-0.93781,0.30964,-0.08723,4703.56,0.324367,-0.016751,0.627248,-0.70786,-0.40095,0.86769,-0.22763,2.18,2.67,2.58,3.08,3.13,2.94,2.83,3.79,3.29,3.82,4.11,3.89,3.99,3.72,3.81,3072,12.8,61243.596,282.636047,1004.859314,-200.684113,1.15183335754721,2.27348255338417,2.27264433985708,25.483858,810.118469,158.790268,166.880798,1188.749878,-16.97562,"CRUZEXT"
251,17,0,43.626,4706.8,0.611858,-0.174162,0.655191,-0.407458,-0.92855,0.31285,-0.08965,4703.58,0.333071,-0.019883,0.624724,-0.705967,-0.45051,0.89019,-0.23717,2.18,2.67,2.55,3.1,3.13,2.94,2.82,3.8,3.29,3.81,4.11,3.89,3.99,3.72,3.81,3080,12.833333,61243.629333,282.636047,1004.859314,-200.684113,1.15171107865478,2.27417541988316,2.27185891548619,25.686853,810.247314,158.677094,167.293304,1188.194092,-17.850599,"CRUZEXT"
252,17,0,43.648,4706.82,0.611703,-0.174351,0.655,-0.407917,-0.91828,0.32839,-0.08949,4703.6,0.342051,-0.02305,0.622515,-0.703523,-0.48136,0.87418,-0.23434,2.19,2.67,2.52,3.1,3.13,2.94,2.82,3.8,3.29,3.81,4.11,3.9,3.99,3.73,3.81,3085,12.854167,61243.650167,282.636047,1004.859314,-200.684113,1.15188630575637,2.27512541100142,2.27104004349209,25.797682,810.411682,158.577881,167.691162,1187.838257,-18.586443,"CRUZEXT"
253,17,0,43.653,4706.84,0.611648,-0.174466,0.654764,-0.408329,-0.92308,0.33325,-0.09267,4703.62,0.351436,-0.026574,0.619143,-0.701747,-0.46687,0.83207,-0.23244,2.19,2.67,2.51,3.11,3.12,2.94,2.82,3.79,3.29,3.81,4.11,3.9,3.99,3.73,3.81,3086,12.858333,61243.654333,282.636047,1004.859314,-200.684113,1.15192316181064,2.2753221550345,2.27087081039789,25.812302,810.457764,158.554001,167.772049,1187.766968,-18.736071,"CRUZEXT"
254,17,0,43.687,4706.86,0.611709,-0.174521,0.654455,-0.408709,-0.93635,0.32272,-0.09269,4703.64,0.360007,-0.030016,0.615484,-0.700481,-0.47672,0.8038,-0.22726,2.19,2.67,2.49,3.12,3.12,2.93,2.82,3.79,3.29,3.81,4.11,3.9,3.99,3.74,3.81,3094,12.891667,61243.687667,282.636047,1004.859314,-200.684113,1.1518587701841,2.27664311454511,2.26949870706227,25.962942,810.796021,158.390076,168.250732,1187.26123,-19.815765,"CRUZEXT"
255,17,0,43.692,4706.88,0.611808,-0.174554,0.654094,-0.409123,-0.94325,0.32094,-0.09555,4703.66,0.368586,-0.032953,0.613124,-0.697952,-0.52905,0.80333,-0.22649,2.19,2.67,2.47,3.13,3.12,2.93,2.82,3.79,3.29,3.8,4.11,3.91,4,3.74,3.8,3096,12.9,61243.696,282.636047,1004.859314,-200.684113,1.15186659657426,2.27705876005283,2.26908791170609,26.015259,810.861206,158.356903,168.384079,1187.140625,-20.111799,"CRUZEXT"
256,17,0,43.726,4706.9,0.611933,-0.174442,0.653718,-0.409587,-0.9308,0.33032,-0.1001,4703.68,0.37796,-0.036204,0.610962,-0.694666,-0.52209,0.80151,-0.2211,2.19,2.67,2.46,3.13,3.12,2.93,2.82,3.79,3.28,3.8,4.11,3.91,4,3.74,3.8,3104,12.933333,61243.729333,282.636047,1004.859314,-200.684113,1.15168675557111,2.27852708140647,2.2674791198721,26.179049,811.042114,158.252518,168.819,1186.685669,-21.216671,"CRUZEXT"
257,17,0,43.747,4706.92,0.612076,-0.174403,0.653442,-0.40983,-0.91868,0.32891,-0.10142,4703.7,0.387297,-0.040252,0.607197,-0.692598,-0.51657,0.78517,-0.24876,2.19,2.67,2.44,3.13,3.12,2.93,2.81,3.78,3.28,3.81,4.11,3.92,3.99,3.75,3.8,3109,12.954167,61243.750167,282.636047,1004.859314,-200.684113,1.15101845109083,2.2789939222146,2.26650525732705,26.234516,811.087463,158.194839,168.923218,1186.346069,-21.858019,"CRUZEXT"
258,17,0,43.752,4706.94,0.612169,-0.174478,0.65312,-0.410172,-0.91314,0.31927,-0.09984,4703.72,0.396526,-0.044612,0.603115,-0.690673,-0.56037,0.77209,-0.28134,2.19,2.67,2.42,3.14,3.11,2.92,2.81,3.78,3.28,3.8,4.11,3.92,3.99,3.75,3.8,3110,12.958333,61243.754333,282.636047,1004.859314,-200.684113,1.15086632259093,2.27907670036196,2.26630702337293,26.248093,811.093262,158.180267,168.943726,1186.269043,-21.993628,"CRUZEXT"
259,17,0,43.787,4706.96,0.6123,-0.174421,0.652752,-0.410585,-0.91031,0.32003,-0.10376,4703.74,0.406317,-0.048529,0.599352,-0.687989,-0.57994,0.75432,-0.27872,2.19,2.68,2.41,3.14,3.11,2.92,2.81,3.78,3.28,3.8,4.11,3.93,3.99,3.75,3.79,3118,12.991667,61243.787667,282.636047,1004.859314,-200.684113,1.1491368930391,2.27988451973865,2.26418402674933,26.240381,811.068298,158.157867,169.011078,1185.632568,-23.241177,"CRUZEXT"
260,17,0,43.792,4706.98,0.612348,-0.174316,0.652555,-0.410873,-0.91085,0.32553,-0.10976,4703.76,0.416365,-0.052905,0.595222,-0.685239,-0.54855,0.75809,-0.27534,2.2,2.68,2.39,3.15,3.11,2.92,2.81,3.79,3.28,3.81,4.1,3.93,3.99,3.75,3.79,3120,13,61243.796,282.636047,1004.859314,-200.684113,1.14865263722922,2.2800335522852,2.2636661049387,26.228188,811.063904,158.146194,169.033051,1185.434082,-23.577257,"CRUZEXT"
261,17,0,43.828,4707,0.612495,-0.174142,0.652254,-0.411204,-0.91781,0.32331,-0.11203,4703.78,0.424936,-0.057319,0.590939,-0.683326,-0.55662,0.75966,-0.28524,2.2,2.68,2.36,3.15,3.1,2.92,2.81,3.79,3.28,3.81,4.11,3.94,3.99,3.75,3.78,3128,13.033333,61243.829333,282.636047,1004.859314,-200.684113,1.14734746533159,2.28083790774464,2.26186282953465,26.100605,811.092407,158.078903,169.339539,1184.593506,-24.949543,"CRUZEXT"
262,17,0,43.849,4707.02,0.612395,-0.174061,0.652221,-0.411439,-0.92507,0.32169,-0.11042,4703.8,0.43288,-0.060944,0.587714,-0.680803,-0.58536,0.77035,-0.29883,2.2,2.67,2.34,3.16,3.1,2.92,2.81,3.79,3.28,3.82,4.11,3.95,3.99,3.75,3.78,3133,13.054167,61243.850167,282.636047,1004.859314,-200.684113,1.14690479035933,2.28127159785568,2.26108837780166,26.030846,811.131348,158.024216,169.630035,1184.047119,-25.736115,"CRUZEXT"
263,17,0,43.854,4707.04,0.612353,-0.173853,0.652206,-0.411615,-0.92957,0.32589,-0.1084,4703.82,0.44072,-0.064481,0.585441,-0.677397,-0.59391,0.79815,-0.30334,2.2,2.67,2.32,3.16,3.1,2.92,2.81,3.79,3.28,3.82,4.11,3.95,3.99,3.75,3.78,3134,13.058333,61243.854333,282.636047,1004.859314,-200.684113,1.14679448812324,2.28133130286131,2.2609440193727,26.017136,811.137146,158.003143,169.677475,1183.940552,-25.882856,"CRUZEXT"
264,17,0,43.886,4707.06,0.612434,-0.173551,0.652106,-0.41178,-0.92887,0.32424,-0.10095,4703.84,0.447377,-0.067584,0.583577,-0.674333,-0.60165,0.78196,-0.32378,2.2,2.67,2.3,3.16,3.09,2.92,2.82,3.79,3.28,3.83,4.11,3.96,3.99,3.76,3.77,3142,13.091667,61243.887667,282.636047,1004.859314,-200.684113,1.14641601796949,2.28205162291881,2.25992919405307,26.019503,811.162964,157.841553,170.1483,1183.193848,-26.971153,"CRUZEXT"
265,17,0,43.907,4707.08,0.612509,-0.1733,0.652003,-0.411938,-0.92573,0.32628,-0.09591,4703.86,0.453537,-0.070313,0.581862,-0.671414,-0.68011,0.74684,-0.34504,2.2,2.67,2.29,3.17,3.09,2.92,2.82,3.79,3.28,3.83,4.11,3.96,3.98,3.76,3.77,3147,13.1125,61243.9085,282.636047,1004.859314,-200.684113,1.14616424062043,2.28240405747631,2.2593814393855,26.063065,811.151672,157.670059,170.29512,1182.934692,-27.409801,"CRUZEXT"
266,17,0,43.913,4707.1,0.612744,-0.17288,0.651932,-0.411876,-0.91902,0.33079,-0.09051,4703.88,0.46052,-0.072866,0.579691,-0.668259,-0.7079,0.72065,-0.34075,2.2,2.66,2.27,3.17,3.08,2.92,2.82,3.79,3.28,3.84,4.1,3.96,3.98,3.76,3.77,3149,13.120833,61243.916833,282.636047,1004.859314,-200.684113,1.14608300768014,2.28259602941124,2.25912576483068,26.080927,811.159973,157.588623,170.341141,1182.869385,-27.565702,"CRUZEXT"
267,17,0,43.946,4707.12,0.613079,-0.172344,0.651952,-0.411569,-0.92238,0.32293,-0.09079,4703.9,0.468093,-0.076132,0.576697,-0.665217,-0.66582,0.69699,-0.31815,2.19,2.66,2.26,3.18,3.08,2.92,2.83,3.79,3.29,3.85,4.1,3.96,3.97,3.76,3.77,3156,13.15,61243.946,282.636047,1004.859314,-200.684113,1.14617149940731,2.28366680396296,2.25811363387349,26.168528,811.174988,157.290115,170.624039,1182.676025,-28.180649,"CRUZEXT"
268,17,0,43.968,4707.14,0.61339,-0.171786,0.651991,-0.41128,-0.92997,0.31689,-0.09129,4703.92,0.475132,-0.080254,0.572959,-0.662968,-0.62418,0.68509,-0.32302,2.19,2.66,2.25,3.18,3.07,2.92,2.83,3.79,3.29,3.85,4.09,3.97,3.97,3.76,3.77,3162,13.175,61243.971,282.636047,1004.859314,-200.684113,1.14604518332825,2.28430442178315,2.25737350574947,26.256582,811.19812,157.131805,170.796814,1182.483032,-28.650141,"CRUZEXT"
269,17,0,43.973,4707.16,0.613581,-0.171379,0.651992,-0.411162,-0.93091,0.32328,-0.10296,4703.94,0.481416,-0.083834,0.569887,-0.660636,-0.66481,0.66401,-0.35676,2.19,2.65,2.24,3.18,3.07,2.92,2.84,3.8,3.29,3.86,4.09,3.97,3.96,3.77,3.76,3163,13.179167,61243.975167,282.636047,1004.859314,-200.684113,1.14600836735766,2.28437289998256,2.25727618917181,26.271244,811.196106,157.122375,170.812775,1182.457275,-28.709116,"CRUZEXT"
270,17,0,44.007,4707.18,0.613566,-0.171194,0.652031,-0.4112,-0.92022,0.34174,-0.10716,4703.96,0.48814,-0.086691,0.568161,-0.656809,-0.6931,0.63295,-0.36339,2.19,2.65,2.23,3.18,3.07,2.92,2.84,3.8,3.29,3.87,4.09,3.97,3.96,3.77,3.76,3171,13.2125,61244.0085,282.636047,1004.859314,-200.684113,1.14625107520377,2.28511521164535,2.25671262332248,26.349585,811.19989,157.090881,171.049545,1182.328369,-29.099228,"CRUZEXT"
271,17,0,44.012,4707.2,0.613655,-0.170623,0.651794,-0.411679,-0.90986,0.34797,-0.11025,4703.98,0.495442,-0.089839,0.566302,-0.65251,-0.67104,0.60784,-0.334,2.19,2.65,2.22,3.19,3.06,2.92,2.84,3.8,3.29,3.88,4.08,3.97,3.95,3.77,3.76,3172,13.216667,61244.012667,282.636047,1004.859314,-200.684113,1.14631588528798,2.28522527360171,2.2566511043528,26.356863,811.204285,157.083862,171.083694,1182.322021,-29.140036,"CRUZEXT"
272,17,0,44.046,4707.22,0.613679,-0.170516,0.651726,-0.411796,-0.91846,0.33738,-0.11621,4704,0.502765,-0.094532,0.563436,-0.648715,-0.66729,0.604,-0.32795,2.19,2.64,2.21,3.19,3.06,2.92,2.84,3.8,3.29,3.89,4.08,3.98,3.95,3.77,3.75,3180,13.25,61244.046,282.636047,1004.859314,-200.684113,1.14694701901545,2.28592211911382,2.25643028879953,26.331659,811.285095,157.036682,171.381348,1182.238403,-29.404715,"CRUZEXT"
273,17,0,44.069,4707.24,0.613635,-0.170567,0.651601,-0.412037,-0.92827,0.32654,-0.11555,4704.02,0.509586,-0.100083,0.560347,-0.645226,-0.68059,0.58493,-0.35106,2.18,2.64,2.21,3.19,3.05,2.92,2.84,3.81,3.29,3.89,4.08,3.98,3.94,3.77,3.75,3186,13.275,61244.071,282.636047,1004.859314,-200.684113,1.1472844483994,2.28634554728759,2.25626055292597,26.330128,811.329712,156.996185,171.592056,1182.121338,-29.636652,"CRUZEXT"
274,17,0,44.074,4707.26,0.613609,-0.170673,0.651341,-0.412442,-0.92786,0.32764,-0.10932,4704.04,0.516462,-0.105584,0.557257,-0.641549,-0.71232,0.56341,-0.34998,2.18,2.64,2.2,3.19,3.05,2.93,2.85,3.81,3.29,3.9,4.08,3.98,3.93,3.77,3.75,3187,13.279167,61244.075167,282.636047,1004.859314,-200.684113,1.14730990750303,2.28635198940573,2.25627350782594,26.331949,811.337158,156.989792,171.620255,1182.087646,-29.667721,"CRUZEXT"
275,17,0,44.108,4707.28,0.613603,-0.170746,0.651124,-0.412765,-0.92386,0.33043,-0.10543,4704.06,0.52318,-0.110876,0.554031,-0.637996,-0.72287,0.57127,-0.34005,2.18,2.65,2.2,3.19,3.05,2.93,2.85,3.81,3.29,3.9,4.07,3.98,3.93,3.77,3.75,3195,13.3125,61244.1085,282.636047,1004.859314,-200.684113,1.14717991412667,2.28627926644534,2.25624759332773,26.351601,811.339111,156.991714,171.795807,1181.741577,-29.992788,"CRUZEXT"
276,17,0,44.113,4707.3,0.613647,-0.170692,0.650881,-0.413106,-0.91643,0.33105,-0.10479,4704.08,0.529295,-0.115693,0.551027,-0.63469,-0.74493,0.58271,-0.36065,2.18,2.65,2.2,3.2,3.04,2.93,2.85,3.81,3.29,3.9,4.07,3.98,3.92,3.77,3.75,3197,13.320833,61244.116833,282.636047,1004.859314,-200.684113,1.14704797370678,2.2862404635694,2.25618589348447,26.367958,811.321472,157.0112,171.809387,1181.660278,-30.076498,"CRUZEXT"
277,17,0,44.147,4707.32,0.613669,-0.170886,0.650637,-0.413377,-0.91378,0.33582,-0.10761,4704.1,0.535725,-0.120299,0.548196,-0.630879,-0.75466,0.5817,-0.37892,2.18,2.65,2.2,3.19,3.04,2.93,2.85,3.81,3.29,3.91,4.07,3.98,3.91,3.77,3.75,3205,13.354167,61244.150167,282.636047,1004.859314,-200.684113,1.14699968239323,2.28627450861649,2.25611455571112,26.41724,811.306702,157.106064,171.964325,1181.401123,-30.348112,"CRUZEXT"
278,17,0,44.152,4707.34,0.613667,-0.171121,0.650416,-0.413629,-0.91584,0.33871,-0.10863,4704.12,0.542334,-0.125371,0.544957,-0.627039,-0.74259,0.55776,-0.35807,2.18,2.65,2.19,3.2,3.04,2.94,2.84,3.81,3.29,3.91,4.07,3.98,3.91,3.77,3.75,3206,13.358333,61244.154333,282.636047,1004.859314,-200.684113,1.1470712228547,2.28630715492087,2.25613629157805,26.416105,811.311768,157.118408,172.0047,1181.371338,-30.378719,"CRUZEXT"
279,17,0,44.188,4707.36,0.613676,-0.171156,0.650197,-0.413946,-0.92085,0.33721,-0.10885,4704.14,0.548613,-0.130721,0.541804,-0.623205,-0.72201,0.53482,-0.36384,2.18,2.64,2.19,3.2,3.03,2.94,2.84,3.81,3.29,3.9,4.07,3.98,3.9,3.77,3.74,3215,13.395833,61244.191833,282.636047,1004.859314,-200.684113,1.14769944012311,2.28642371426755,2.25649872112755,26.398039,811.366394,157.240448,172.380798,1181.040283,-30.645588,"CRUZEXT"
280,17,0,44.193,4707.38,0.613628,-0.171333,0.65005,-0.414174,-0.92651,0.33092,-0.11293,4704.16,0.554254,-0.135658,0.539484,-0.619157,-0.76641,0.54044,-0.39422,2.18,2.64,2.19,3.2,3.03,2.94,2.84,3.81,3.29,3.9,4.06,3.98,3.89,3.77,3.74,3216,13.4,61244.196,282.636047,1004.859314,-200.684113,1.14783152324444,2.28649126659386,2.25653135858952,26.399931,811.369934,157.25386,172.442093,1181.00769,-30.683472,"CRUZEXT"
281,17,0,44.227,4707.4,0.613572,-0.171404,0.649859,-0.414528,-0.9259,0.33118,-0.11302,4704.18,0.55956,-0.139732,0.538087,-0.614679,-0.77068,0.51048,-0.40288,2.17,2.64,2.19,3.2,3.04,2.95,2.84,3.81,3.29,3.9,4.06,3.98,3.88,3.77,3.73,3224,13.433333,61244.229333,282.636047,1004.859314,-200.684113,1.14865485655991,2.28667751961386,2.256971471035,26.351891,811.384644,157.373169,172.831696,1180.744263,-30.882784,"CRUZEXT"
282,17,0,44.232,4707.42,0.613515,-0.171595,0.649706,-0.414773,-0.92018,0.33472,-0.11468,4704.2,0.565023,-0.143813,0.536682,-0.60995,-0.77319,0.52115,-0.38081,2.17,2.64,2.19,3.2,3.04,2.95,2.84,3.8,3.29,3.89,4.05,3.97,3.87,3.77,3.73,3225,13.4375,61244.2335,282.636047,1004.859314,-200.684113,1.14877240266283,2.28670746840141,2.25703083136642,26.341766,811.384216,157.389557,172.886536,1180.708496,-30.910854,"CRUZEXT"
283,17,0,44.265,4707.44,0.613458,-0.171736,0.649636,-0.414908,-0.92011,0.32999,-0.11234,4704.22,0.570033,-0.148692,0.534743,-0.605807,-0.75736,0.52591,-0.38109,2.17,2.64,2.19,3.2,3.04,2.95,2.85,3.8,3.29,3.9,4.05,3.97,3.86,3.77,3.73,3233,13.470833,61244.266833,282.636047,1004.859314,-200.684113,1.14964789999825,2.28671406407964,2.25769093681491,26.244068,811.381104,157.460419,173.316589,1180.363037,-31.109137,"CRUZEXT"
284,17,0,44.287,4707.46,0.613588,-0.171777,0.649344,-0.415156,-0.91985,0.32598,-0.11276,4704.24,0.57367,-0.153654,0.532507,-0.6031,-0.75338,0.50221,-0.39512,2.17,2.64,2.19,3.2,3.04,2.95,2.85,3.8,3.29,3.9,4.04,3.97,3.85,3.77,3.73,3238,13.491667,61244.287667,282.636047,1004.859314,-200.684113,1.15014319663062,2.28675266284627,2.25802863396488,26.188753,811.358521,157.472015,173.603409,1180.104126,-31.297106,"CRUZEXT"
285,17,0,44.292,4707.48,0.613565,-0.171884,0.649315,-0.415192,-0.92348,0.32532,-0.10782,4704.26,0.577415,-0.158229,0.530145,-0.600418,-0.78756,0.49128,-0.38846,2.17,2.64,2.2,3.19,3.04,2.96,2.85,3.8,3.29,3.9,4.05,3.97,3.83,3.77,3.73,3240,13.5,61244.296,282.636047,1004.859314,-200.684113,1.15035292978752,2.28670877451816,2.25823233444184,26.158257,811.353027,157.478027,173.725555,1179.981079,-31.365488,"CRUZEXT"
286,17,0,44.327,4707.5,0.613795,-0.171852,0.648949,-0.415437,-0.92231,0.32533,-0.11053,4704.28,0.58046,-0.163364,0.527496,-0.598437,-0.75567,0.47053,-0.37493,2.17,2.64,2.21,3.19,3.04,2.96,2.85,3.8,3.29,3.9,4.05,3.97,3.83,3.77,3.73,3248,13.533333,61244.329333,282.636047,1004.859314,-200.684113,1.15148862545479,2.28663883892618,2.25916476457799,26.058838,811.300781,157.482224,174.318115,1179.457886,-31.666111,"CRUZEXT"
287,17,0,44.332,4707.52,0.613814,-0.171901,0.648929,-0.41542,-0.91884,0.32731,-0.10697,4704.3,0.582955,-0.168354,0.524859,-0.596946,-0.84874,0.46097,-0.39519,2.17,2.64,2.22,3.2,3.05,2.96,2.85,3.8,3.29,3.9,4.06,3.97,3.82,3.77,3.73,3249,13.5375,61244.3335,282.636047,1004.859314,-200.684113,1.15164541468676,2.28663918011356,2.25928323837149,26.049255,811.292297,157.482849,174.393127,1179.398438,-31.699392,"CRUZEXT"
288,17,0,44.365,4707.54,0.61391,-0.171884,0.648895,-0.415339,-0.91989,0.32891,-0.11089,4704.32,0.585731,-0.172025,0.522373,-0.59536,-0.85559,0.44374,-0.41237,2.17,2.65,2.23,3.19,3.05,2.96,2.85,3.8,3.29,3.9,4.05,3.96,3.82,3.77,3.73,3257,13.570833,61244.366833,282.636047,1004.859314,-200.684113,1.15472627569601,2.28692310359215,2.26132374300888,26.002174,811.305054,157.474136,175.700485,1178.548462,-32.160641,"CRUZEXT"
