Sample,Hour,Minute,Sec,Stamp,Quat1,Quat2,Quat3,Quat4,AccX,AccY,AccZ,Stamp2,Quat2_1,Quat2_2,Quat2_3,Quat2_4,Acc2_X,Acc2_Y,Acc2_Z,A0,A1,A2,A3,A4,A5,A6,A7,A8,A9,A10,A11,A12,A13,A14,Frame,Time,realTime,BrazoX,BrazoY,BrazoZ,angBrazoX,angBrazoY,angBrazoZ,EspaldaX,EspaldaY,EspaldaZ,refX,refY,refZ,type
2,16,53,55.443,4298.44,0.710752,0.003543,0.675543,-0.196117,-0.94449,0.26878,-0.08775,4295.28,0.730264,-0.192227,0.530457,-0.385199,-0.90355,0.12315,-0.37312,2.17,2.64,2.73,2.75,3.16,3.02,3.02,3.83,3.16,3.88,4,3.9,3.75,3.82,3.72,2186,9.108333,60835.445333,309.153778,970.249268,-138.547379,1.0962337326842,2.45313755736508,2.02798799280637,37.201618,808.588989,165.363998,184.696609,1180.577515,-18.317177,"CRUZEXT"
3,16,53,55.455,4298.46,0.710755,0.003513,0.675517,-0.196192,-0.94385,0.26765,-0.09171,4295.3,0.730374,-0.192196,0.530344,-0.385163,-0.90442,0.12224,-0.37627,2.16,2.64,2.73,2.76,3.16,3.02,3.02,3.83,3.16,3.88,4,3.9,3.74,3.82,3.72,2189,9.120833,60835.457833,309.094666,970.157593,-138.574188,1.09647741505812,2.45342796725992,2.02787829238858,37.202003,808.582458,165.367935,184.686981,1180.552246,-18.361563,"CRUZEXT"
4,16,53,55.462,4298.48,0.71073,0.003465,0.675536,-0.19622,-0.94299,0.2665,-0.08894,4295.32,0.730379,-0.192105,0.530416,-0.385099,-0.90386,0.12261,-0.37509,2.16,2.64,2.73,2.76,3.16,3.02,3.02,3.83,3.16,3.88,4,3.9,3.74,3.82,3.72,2190,9.125,60835.462,309.075165,970.133606,-138.586166,1.096549143323,2.45350855167742,2.02785205721271,37.203281,808.580017,165.368835,184.688736,1180.535645,-18.383698,"CRUZEXT"
5,16,53,55.476,4298.5,0.710674,0.003439,0.675579,-0.196274,-0.94334,0.26578,-0.08967,4295.34,0.730395,-0.192036,0.530437,-0.385073,-0.90339,0.12193,-0.37371,2.16,2.64,2.73,2.76,3.16,3.02,3.02,3.83,3.16,3.88,4,3.9,3.74,3.82,3.72,2194,9.141667,60835.478667,308.984833,969.99707,-138.621628,1.09695364652983,2.45390895395656,2.02777095276034,37.197697,808.57019,165.38121,184.680771,1180.494873,-18.42384,"CRUZEXT"
6,16,53,55.481,4298.52,0.710669,0.003405,0.675572,-0.196317,-0.94475,0.26735,-0.0918,4295.36,0.730522,-0.192411,0.530127,-0.385073,-0.90458,0.12078,-0.37495,2.16,2.64,2.73,2.76,3.16,3.02,3.02,3.83,3.16,3.88,4,3.9,3.75,3.82,3.72,2195,9.145833,60835.482833,308.961029,969.960144,-138.632523,1.09706887899707,2.45401917898232,2.02775257220871,37.198513,808.564514,165.381973,184.681198,1180.483276,-18.435648,"CRUZEXT"
7,16,53,55.487,4298.54,0.710667,0.003426,0.675579,-0.196302,-0.94437,0.26617,-0.09096,4295.38,0.730602,-0.192352,0.530103,-0.384984,-0.902,0.1217,-0.37242,2.17,2.64,2.73,2.76,3.16,3.02,3.02,3.83,3.16,3.88,4,3.9,3.74,3.82,3.73,2196,9.15,60835.487,308.939392,969.926758,-138.638214,1.09717274179826,2.45414510885528,2.02770306782438,37.196934,808.562317,165.380569,184.68689,1180.468018,-18.455521,"CRUZEXT"
8,16,53,55.492,4298.56,0.710754,0.003441,0.675506,-0.196236,-0.94395,0.26685,-0.09265,4295.4,0.730646,-0.192411,0.530043,-0.384953,-0.90004,0.12317,-0.36832,2.16,2.64,2.73,2.76,3.16,3.02,3.02,3.83,3.16,3.88,4,3.9,3.74,3.82,3.72,2198,9.158333,60835.495333,308.889587,969.862305,-138.656708,1.09739243510083,2.45434308060366,2.02768304303551,37.197243,808.552307,165.395538,184.682739,1180.450684,-18.471548,"CRUZEXT"
9,16,53,55.498,4298.58,0.710764,0.003498,0.675508,-0.196191,-0.94536,0.26578,-0.08892,4295.42,0.730661,-0.19256,0.529938,-0.384995,-0.89823,0.12287,-0.36789,2.16,2.64,2.73,2.76,3.16,3.02,3.02,3.83,3.16,3.88,4,3.91,3.75,3.82,3.72,2199,9.1625,60835.4995,308.866638,969.832031,-138.666275,1.0974749978087,2.45443040724075,2.02765949171193,37.197094,808.552612,165.395416,184.676544,1180.44104,-18.483713,"CRUZEXT"
10,16,53,55.504,4298.6,0.71058,0.003592,0.675672,-0.196293,-0.94531,0.26833,-0.08888,4295.44,0.730646,-0.192809,0.529779,-0.385117,-0.90367,0.12003,-0.37233,2.16,2.64,2.73,2.76,3.17,3.02,3.02,3.83,3.16,3.88,4,3.9,3.74,3.82,3.72,2201,9.170833,60835.507833,308.819855,969.767334,-138.681091,1.09764008852649,2.45462082973832,2.02759279886186,37.200283,808.547607,165.400269,184.666382,1180.415039,-18.511532,"CRUZEXT"
11,16,53,55.516,4298.62,0.710583,0.003619,0.675674,-0.196274,-0.94287,0.27016,-0.09148,4295.46,0.730647,-0.193113,0.529565,-0.385258,-0.90447,0.12102,-0.3758,2.17,2.64,2.73,2.76,3.17,3.02,3.02,3.83,3.16,3.88,4,3.9,3.75,3.82,3.72,2203,9.179167,60835.516167,308.797852,969.733398,-138.689453,1.09773193359189,2.45472334843009,2.02755991838657,37.197544,808.547974,165.409195,184.661697,1180.407227,-18.523136,"CRUZEXT"
12,16,53,55.521,4298.64,0.710589,0.003613,0.675663,-0.196291,-0.94343,0.26964,-0.08822,4295.48,0.730642,-0.193377,0.529404,-0.385356,-0.90426,0.11987,-0.37741,2.17,2.64,2.73,2.76,3.16,3.02,3.02,3.83,3.16,3.88,4,3.91,3.75,3.82,3.72,2205,9.1875,60835.5245,308.728729,969.638245,-138.715378,1.0979880267976,2.45501262007555,2.0274639572021,37.206226,808.536682,165.414856,184.647995,1180.373413,-18.566044,"CRUZEXT"
13,16,53,55.573,4298.66,0.710578,0.003573,0.675646,-0.196389,-0.94209,0.26939,-0.08955,4295.5,0.730701,-0.193585,0.529178,-0.385448,-0.90803,0.12094,-0.37992,2.16,2.64,2.73,2.76,3.17,3.02,3.02,3.84,3.16,3.88,4,3.9,3.74,3.82,3.72,2217,9.2375,60835.5745,308.547241,969.369629,-138.74942,1.09856017295715,2.45582118951688,2.0270482282464,37.194168,808.517578,165.410172,184.589462,1180.271362,-18.686405,"CRUZEXT"
14,16,53,55.578,4298.68,0.710606,0.003504,0.675597,-0.196456,-0.9421,0.26941,-0.08864,4295.52,0.730731,-0.193746,0.529027,-0.385519,-0.9088,0.12265,-0.38149,2.17,2.64,2.73,2.76,3.17,3.02,3.02,3.83,3.16,3.88,4,3.9,3.75,3.82,3.72,2218,9.241667,60835.578667,308.543091,969.357178,-138.754517,1.09857966411687,2.45587076825775,2.02700675476631,37.197212,808.515259,165.406616,184.589905,1180.2677,-18.701515,"CRUZEXT"
15,16,53,55.594,4298.7,0.71062,0.003379,0.675566,-0.196515,-0.94428,0.26801,-0.09124,4295.54,0.730792,-0.193774,0.528946,-0.385501,-0.90834,0.12575,-0.3818,2.17,2.64,2.73,2.76,3.17,3.02,3.02,3.83,3.16,3.88,4,3.9,3.74,3.82,3.72,2222,9.258333,60835.595333,308.528381,969.30188,-138.765457,1.09860863117703,2.4560064252175,2.02686830656939,37.193695,808.501404,165.393784,184.574173,1180.249512,-18.738529,"CRUZEXT"
16,16,53,55.599,4298.72,0.710648,0.00328,0.675506,-0.196624,-0.94608,0.26568,-0.08943,4295.56,0.730933,-0.193628,0.528828,-0.385468,-0.90609,0.12582,-0.37805,2.17,2.64,2.73,2.76,3.17,3.02,3.02,3.83,3.16,3.88,4,3.9,3.75,3.82,3.72,2223,9.2625,60835.5995,308.515717,969.291016,-138.767975,1.09867384867586,2.45608613501131,2.0268363219528,37.182999,808.503113,165.388123,184.582047,1180.244385,-18.753433,"CRUZEXT"
17,16,53,55.631,4298.74,0.710675,0.003171,0.675444,-0.19674,-0.94336,0.26632,-0.09047,4295.58,0.730961,-0.193619,0.528784,-0.385482,-0.90498,0.1234,-0.37952,2.17,2.64,2.73,2.76,3.17,3.02,3.02,3.83,3.16,3.88,4,3.9,3.74,3.82,3.72,2231,9.295833,60835.632833,308.50827,969.212524,-138.781326,1.09855040941313,2.45623741031913,2.02652229769017,37.146309,808.490479,165.346832,184.539246,1180.201172,-18.8384,"CRUZEXT"
18,16,53,55.636,4298.76,0.710688,0.003093,0.67542,-0.196777,-0.94331,0.26594,-0.0908,4295.6,0.731212,-0.193689,0.528412,-0.385479,-0.90627,0.1204,-0.3798,2.17,2.64,2.73,2.76,3.16,3.02,3.02,3.83,3.16,3.89,4,3.9,3.75,3.82,3.72,2232,9.3,60835.637,308.51355,969.211365,-138.776535,1.09851378211048,2.45624217791685,2.0264788385675,37.146,808.481873,165.337677,184.534363,1180.203003,-18.843012,"CRUZEXT"
19,16,53,55.691,4298.78,0.710679,0.003056,0.675411,-0.196841,-0.94456,0.26589,-0.09167,4295.62,0.731261,-0.193628,0.528392,-0.385445,-0.90548,0.1194,-0.38077,2.17,2.64,2.73,2.76,3.16,3.02,3.01,3.83,3.16,3.88,4,3.9,3.75,3.82,3.72,2245,9.354167,60835.691167,308.520844,969.137695,-138.750305,1.09827802005802,2.4565575078314,2.02584579376878,37.097492,808.496826,165.259689,184.498001,1180.160645,-18.984819,"CRUZEXT"
20,16,53,55.696,4298.8,0.710642,0.003052,0.67547,-0.196775,-0.94439,0.26449,-0.09056,4295.64,0.73136,-0.193375,0.528471,-0.385274,-0.90377,0.11944,-0.37816,2.17,2.64,2.73,2.76,3.17,3.02,3.01,3.83,3.16,3.88,4,3.91,3.75,3.82,3.72,2247,9.3625,60835.6995,308.513275,969.11908,-138.749939,1.09830032001843,2.45661901322078,2.02579235006238,37.085678,808.491699,165.254395,184.498596,1180.147949,-19.000193,"CRUZEXT"
21,16,53,55.715,4298.82,0.710627,0.003078,0.675482,-0.196785,-0.94343,0.26547,-0.09119,4295.66,0.731461,-0.19309,0.528547,-0.385122,-0.90308,0.12329,-0.37767,2.17,2.64,2.73,2.76,3.17,3.02,3.02,3.83,3.16,3.88,4,3.9,3.75,3.82,3.72,2251,9.379167,60835.716167,308.4888,969.072449,-138.760132,1.09838751043123,2.45678037667478,2.02568157183175,37.084064,808.4729,165.248688,184.48996,1180.138184,-19.032368,"CRUZEXT"
22,16,53,55.72,4298.84,0.710625,0.003105,0.675488,-0.196773,-0.94407,0.26864,-0.09145,4295.68,0.731513,-0.193074,0.528508,-0.385084,-0.90306,0.12083,-0.37517,2.17,2.64,2.73,2.76,3.17,3.02,3.02,3.83,3.16,3.88,4,3.9,3.75,3.82,3.72,2252,9.383333,60835.720333,308.482147,969.059998,-138.766678,1.09841486821368,2.45681089347344,2.0256717775972,37.088341,808.462463,165.24379,184.491745,1180.12793,-19.043049,"CRUZEXT"
23,16,53,55.77,4298.86,0.710487,0.003182,0.675603,-0.19687,-0.94517,0.2704,-0.08732,4295.7,0.731468,-0.193379,0.528411,-0.38515,-0.90084,0.12097,-0.37111,2.17,2.64,2.73,2.76,3.17,3.02,3.02,3.83,3.16,3.88,3.99,3.9,3.75,3.82,3.72,2264,9.433333,60835.770333,308.3591,968.870056,-138.882431,1.09893440258539,2.45736666847789,2.02551511397085,37.072021,808.462402,165.23439,184.48465,1180.051025,-19.187361,"CRUZEXT"
24,16,53,55.775,4298.88,0.71049,0.00316,0.675579,-0.196942,-0.94144,0.26967,-0.09148,4295.72,0.731452,-0.193446,0.52842,-0.385135,-0.90002,0.11618,-0.37212,2.17,2.64,2.73,2.76,3.17,3.02,3.02,3.83,3.16,3.88,4,3.9,3.75,3.82,3.72,2266,9.441667,60835.778667,308.320099,968.826904,-138.904312,1.09910280421448,2.45751896032249,2.02549885115826,37.074043,808.461548,165.237961,184.483765,1180.038818,-19.210552,"CRUZEXT"
25,16,53,55.796,4298.9,0.71042,0.003133,0.675618,-0.197064,-0.93841,0.2677,-0.09136,4295.74,0.73141,-0.193568,0.528411,-0.385166,-0.90262,0.12068,-0.37378,2.17,2.64,2.73,2.76,3.17,3.02,3.01,3.83,3.16,3.88,4,3.9,3.74,3.82,3.72,2271,9.4625,60835.7995,308.234161,968.737549,-138.966064,1.09937666958219,2.45776613011015,2.02547295448754,37.081802,808.469482,165.237778,184.452637,1180.011963,-19.267349,"CRUZEXT"
26,16,53,55.801,4298.92,0.710383,0.003072,0.67563,-0.197157,-0.94435,0.26967,-0.09075,4295.76,0.731358,-0.193789,0.528303,-0.385301,-0.90852,0.12183,-0.37981,2.17,2.64,2.73,2.76,3.17,3.02,3.02,3.83,3.16,3.89,4,3.91,3.75,3.82,3.72,2272,9.466667,60835.803667,308.217377,968.728821,-138.974289,1.09942634607359,2.45781928584193,2.02545791970853,37.082241,808.46344,165.241745,184.447235,1180.01355,-19.278597,"CRUZEXT"
27,16,53,55.83,4298.94,0.710357,0.003054,0.675634,-0.197236,-0.94573,0.27096,-0.08953,4295.78,0.73128,-0.19408,0.528168,-0.385489,-0.90918,0.11865,-0.38511,2.17,2.64,2.73,2.76,3.17,3.02,3.02,3.84,3.16,3.89,4,3.9,3.74,3.82,3.72,2279,9.495833,60835.832833,308.124298,968.685608,-139.002609,1.09956993081774,2.45800545678926,2.02537407155843,37.083511,808.472839,165.267242,184.392853,1179.99585,-19.331152,"CRUZEXT"
28,16,53,55.853,4298.96,0.71031,0.003029,0.675673,-0.197274,-0.94531,0.27148,-0.09052,4295.8,0.731601,-0.194349,0.527573,-0.385558,-0.90935,0.11555,-0.38672,2.17,2.64,2.73,2.76,3.17,3.02,3.02,3.83,3.16,3.88,4,3.91,3.75,3.82,3.72,2284,9.516667,60835.853667,308.075684,968.682129,-138.991577,1.09954470729633,2.45809496489014,2.02523709168411,37.080627,808.476501,165.276459,184.341095,1180.002686,-19.356546,"CRUZEXT"
29,16,53,55.858,4298.98,0.710298,0.002982,0.675671,-0.197325,-0.94266,0.26974,-0.08934,4295.82,0.731618,-0.19427,0.527599,-0.385531,-0.90648,0.11696,-0.38203,2.17,2.64,2.73,2.76,3.17,3.02,3.02,3.83,3.16,3.88,4,3.91,3.74,3.82,3.72,2286,9.525,60835.862,308.055176,968.683411,-138.988388,1.09950195188254,2.4580607309292,2.02523574046207,37.084183,808.472534,165.279785,184.311508,1179.99585,-19.354948,"CRUZEXT"
30,16,53,55.908,4299,0.710266,0.002885,0.675693,-0.197365,-0.94114,0.26747,-0.09113,4295.84,0.731652,-0.194118,0.527634,-0.385494,-0.90367,0.12104,-0.3792,2.17,2.64,2.73,2.76,3.17,3.02,3.02,3.83,3.16,3.88,4,3.9,3.75,3.82,3.72,2298,9.575,60835.912,307.906891,968.626526,-138.985245,1.09952181890905,2.45819911682827,2.02508429784306,37.077599,808.450623,165.306503,184.165482,1179.967163,-19.386412,"CRUZEXT"
31,16,53,55.913,4299.02,0.710222,0.002779,0.675714,-0.197454,-0.9413,0.26742,-0.08937,4295.86,0.731711,-0.193955,0.527617,-0.385487,-0.90001,0.12179,-0.37641,2.17,2.64,2.73,2.76,3.17,3.02,3.02,3.83,3.16,3.89,4,3.91,3.75,3.82,3.72,2299,9.579167,60835.916167,307.893921,968.62146,-138.987244,1.099519933298,2.45823066114626,2.02504319287427,37.084965,808.439636,165.305603,184.155411,1179.961792,-19.401722,"CRUZEXT"
32,16,53,55.931,4299.04,0.710199,0.002735,0.675716,-0.19753,-0.94268,0.2665,-0.09117,4295.88,0.731692,-0.193945,0.527592,-0.385563,-0.90126,0.12013,-0.3764,2.17,2.64,2.73,2.76,3.17,3.02,3.02,3.83,3.16,3.88,4,3.9,3.75,3.82,3.72,2303,9.595833,60835.932833,307.839905,968.578491,-139.017456,1.09956236674427,2.45825350440122,2.02505836056334,37.066734,808.432007,165.324219,184.097778,1179.946533,-19.414764,"CRUZEXT"
33,16,53,55.956,4299.06,0.710135,0.002706,0.675774,-0.197561,-0.94378,0.26885,-0.09086,4295.9,0.731665,-0.194007,0.527505,-0.385702,-0.90208,0.12057,-0.37181,2.17,2.64,2.73,2.77,3.17,3.02,3.01,3.83,3.16,3.88,4,3.9,3.75,3.82,3.72,2309,9.620833,60835.957833,307.73819,968.48999,-139.079788,1.09982388584741,2.45843196316915,2.02510500390708,37.046768,808.403198,165.326279,184.042694,1179.917603,-19.449341,"CRUZEXT"
34,16,53,55.961,4299.08,0.710086,0.00262,0.6758,-0.19765,-0.94313,0.26899,-0.09052,4295.92,0.731582,-0.194142,0.527417,-0.385913,-0.89969,0.11973,-0.37211,2.17,2.64,2.73,2.76,3.17,3.02,3.02,3.83,3.16,3.89,4,3.91,3.75,3.82,3.72,2310,9.625,60835.962,307.724701,968.478455,-139.086838,1.09988152833817,2.45847148898521,2.02511503566411,37.038784,808.400269,165.31871,184.044724,1179.910278,-19.4554,"CRUZEXT"
35,16,53,56.012,4299.1,0.709983,0.002541,0.675889,-0.197719,-0.94162,0.268,-0.09103,4295.94,0.731461,-0.194261,0.527386,-0.386124,-0.89922,0.11909,-0.37392,2.17,2.64,2.73,2.76,3.16,3.02,3.01,3.83,3.16,3.89,4,3.9,3.75,3.82,3.72,2322,9.675,60836.012,307.565826,968.287109,-139.224579,1.10015549828859,2.45870250171247,2.02510909154873,36.983212,808.356445,165.328796,183.916809,1179.81958,-19.560144,"CRUZEXT"
36,16,53,56.017,4299.12,0.709948,0.002461,0.675909,-0.197775,-0.94235,0.26876,-0.09106,4295.96,0.731423,-0.194191,0.52737,-0.386252,-0.89952,0.11949,-0.37905,2.17,2.64,2.73,2.77,3.17,3.02,3.02,3.83,3.16,3.89,4,3.91,3.74,3.82,3.72,2324,9.683333,60836.020333,307.552979,968.261536,-139.247177,1.10014576390026,2.45871009704769,2.02508968522098,36.985378,808.336548,165.331131,183.896973,1179.803223,-19.583023,"CRUZEXT"
37,16,53,56.035,4299.14,0.709918,0.002444,0.675943,-0.197767,-0.94329,0.2659,-0.0908,4295.98,0.73138,-0.193971,0.5274,-0.386404,-0.90337,0.1174,-0.38089,2.17,2.64,2.73,2.77,3.17,3.02,3.02,3.83,3.16,3.88,4,3.9,3.75,3.82,3.72,2328,9.7,60836.037,307.525909,968.233093,-139.292847,1.10005230926751,2.45860059641199,2.02512983268106,36.967884,808.316956,165.336441,183.842667,1179.763672,-19.614479,"CRUZEXT"
38,16,53,56.04,4299.16,0.709857,0.002405,0.676012,-0.197752,-0.94387,0.26789,-0.09065,4296,0.731382,-0.193755,0.527305,-0.386639,-0.90555,0.11448,-0.38255,2.17,2.64,2.73,2.77,3.17,3.02,3.02,3.83,3.16,3.89,4,3.9,3.75,3.82,3.72,2329,9.704167,60836.041167,307.518158,968.233643,-139.305603,1.10003300181922,2.4585805768414,2.02513489449723,36.971359,808.304016,165.335495,183.833313,1179.755493,-19.628984,"CRUZEXT"
39,16,53,56.091,4299.18,0.709778,0.002357,0.67608,-0.197801,-0.94322,0.26794,-0.08798,4296.02,0.731272,-0.193508,0.527299,-0.386979,-0.91237,0.12784,-0.38041,2.17,2.64,2.73,2.77,3.17,3.02,3.02,3.83,3.16,3.89,4,3.91,3.75,3.82,3.72,2341,9.754167,60836.091167,307.571686,968.436951,-139.40802,1.09898640223957,2.45731515584492,2.02563240199618,36.899956,808.254822,165.344131,183.632553,1179.740845,-19.609512,"CRUZEXT"
40,16,53,56.096,4299.2,0.709696,0.002306,0.676142,-0.197886,-0.94242,0.2692,-0.0904,4296.04,0.731067,-0.193016,0.527574,-0.387234,-0.91197,0.13707,-0.38567,2.17,2.64,2.73,2.77,3.17,3.02,3.02,3.83,3.16,3.89,4,3.91,3.75,3.82,3.72,2343,9.7625,60836.0995,307.602844,968.486206,-139.407486,1.09874894545372,2.45710845196014,2.02564532550632,36.890041,808.250061,165.338516,183.607224,1179.752441,-19.60696,"CRUZEXT"
41,16,53,56.11,4299.22,0.709634,0.002255,0.676189,-0.197945,-0.94233,0.26925,-0.0869,4296.06,0.73092,-0.192287,0.527952,-0.387361,-0.90941,0.12844,-0.39392,2.17,2.64,2.73,2.77,3.17,3.02,3.02,3.83,3.16,3.88,4,3.91,3.75,3.82,3.72,2346,9.775,60836.112,307.646088,968.56073,-139.398209,1.09845919142006,2.45679273163265,2.02573981970028,36.88279,808.239197,165.331924,183.5858,1179.762817,-19.58004,"CRUZEXT"
42,16,53,56.131,4299.24,0.709569,0.002224,0.676245,-0.19799,-0.94474,0.26869,-0.09159,4296.08,0.730811,-0.191676,0.528271,-0.387434,-0.90224,0.1234,-0.38752,2.17,2.64,2.73,2.77,3.17,3.02,3.02,3.83,3.16,3.89,4,3.91,3.75,3.82,3.72,2351,9.795833,60836.132833,307.697571,968.639954,-139.389175,1.09816153588925,2.45647558877925,2.02582787873034,36.862583,808.235107,165.313675,183.571457,1179.776367,-19.55566,"CRUZEXT"
43,16,53,56.136,4299.26,0.709481,0.002153,0.676326,-0.198027,-0.94399,0.26967,-0.08826,4296.1,0.730762,-0.191383,0.528425,-0.387462,-0.89645,0.12298,-0.38156,2.17,2.64,2.73,2.77,3.17,3.02,3.02,3.83,3.16,3.89,4.01,3.91,3.75,3.82,3.72,2352,9.8,60836.137,307.715698,968.656311,-139.374756,1.09810310688922,2.4564399441152,2.02581212594784,36.858475,808.232605,165.304779,183.576233,1179.785156,-19.545904,"CRUZEXT"
44,16,53,56.189,4299.28,0.70944,0.002111,0.676362,-0.198055,-0.94458,0.2677,-0.09018,4296.12,0.730725,-0.191282,0.528534,-0.387432,-0.89617,0.12113,-0.37971,2.17,2.64,2.73,2.77,3.17,3.02,3.02,3.83,3.16,3.89,4,3.91,3.75,3.82,3.72,2365,9.854167,60836.191167,307.707275,968.551147,-139.248947,1.09853295122646,2.45705245073923,2.02549313784671,36.815918,808.211609,165.254791,183.666718,1179.794922,-19.492962,"CRUZEXT"
45,16,53,56.194,4299.3,0.709328,0.002078,0.676478,-0.198057,-0.94542,0.267,-0.08672,4296.14,0.730771,-0.19131,0.528543,-0.38732,-0.89865,0.12156,-0.37783,2.17,2.64,2.73,2.77,3.17,3.02,3.02,3.83,3.16,3.89,4,3.91,3.75,3.82,3.72,2366,9.858333,60836.195333,307.707916,968.531311,-139.239349,1.09859876600621,2.45715535260616,2.02543295311019,36.806236,808.210144,165.252396,183.680176,1179.798218,-19.495052,"CRUZEXT"
46,16,53,56.212,4299.32,0.709301,0.002024,0.676493,-0.198107,-0.94547,0.26719,-0.08547,4296.16,0.730891,-0.191498,0.528405,-0.387189,-0.89762,0.12259,-0.37878,2.17,2.64,2.73,2.77,3.17,3.02,3.02,3.83,3.16,3.89,4,3.91,3.75,3.82,3.72,2370,9.875,60836.212,307.686859,968.457581,-139.189468,1.09888080909063,2.45752183138123,2.025267471585,36.807796,808.199524,165.233551,183.730728,1179.782349,-19.488718,"CRUZEXT"
47,16,53,56.217,4299.34,0.709286,0.001969,0.676495,-0.19815,-0.94318,0.26702,-0.08807,4296.18,0.730977,-0.191691,0.528324,-0.387042,-0.89924,0.12322,-0.3772,2.18,2.64,2.73,2.77,3.17,3.02,3.02,3.83,3.16,3.89,4,3.91,3.75,3.82,3.72,2372,9.883333,60836.220333,307.676086,968.421875,-139.174179,1.09902699755548,2.45767880539076,2.02522261495286,36.801407,808.204407,165.229813,183.751816,1179.779907,-19.480898,"CRUZEXT"
48,16,53,56.268,4299.36,0.709164,0.001964,0.676585,-0.198281,-0.94315,0.27019,-0.08723,4296.2,0.731049,-0.191973,0.528212,-0.386918,-0.90325,0.12435,-0.37741,2.18,2.64,2.73,2.77,3.17,3.02,3.02,3.83,3.16,3.89,4,3.91,3.74,3.82,3.72,2384,9.933333,60836.270333,307.59668,968.25,-139.08165,1.09979604903947,2.45849344200761,2.02500012111449,36.785595,808.192871,165.238235,183.858475,1179.749634,-19.442139,"CRUZEXT"
49,16,53,56.273,4299.38,0.70915,0.001945,0.676601,-0.198278,-0.94252,0.27063,-0.08791,4296.22,0.731101,-0.192192,0.528131,-0.386822,-0.90571,0.1247,-0.37866,2.18,2.64,2.73,2.77,3.17,3.02,3.02,3.83,3.16,3.89,4,3.91,3.75,3.82,3.72,2385,9.9375,60836.2745,307.592743,968.243225,-139.076828,1.09984642688826,2.45853072493541,2.02500549299284,36.786442,808.19342,165.241699,183.863571,1179.754761,-19.432898,"CRUZEXT"
50,16,53,56.291,4299.4,0.709107,0.001964,0.676628,-0.198338,-0.9431,0.27026,-0.08803,4296.24,0.731132,-0.192345,0.528087,-0.386748,-0.90573,0.12676,-0.37908,2.18,2.64,2.73,2.77,3.17,3.02,3.02,3.83,3.16,3.89,4,3.91,3.75,3.82,3.72,2389,9.954167,60836.291167,307.574615,968.224243,-139.055832,1.0999558049496,2.45864141290243,2.02498021684891,36.795845,808.194275,165.266846,183.877274,1179.74585,-19.423174,"CRUZEXT"
51,16,53,56.311,4299.42,0.709117,0.001929,0.676617,-0.198338,-0.94387,0.26986,-0.0884,4296.26,0.73129,-0.19239,0.527885,-0.386702,-0.90571,0.12456,-0.381,2.17,2.64,2.73,2.77,3.17,3.02,3.02,3.83,3.16,3.89,4,3.91,3.75,3.82,3.72,2394,9.975,60836.312,307.561584,968.210876,-139.017044,1.10006448725831,2.45872347061947,2.02498976406666,36.805187,808.191162,165.294312,183.890167,1179.747437,-19.381575,"CRUZEXT"
52,16,53,56.316,4299.44,0.709132,0.001864,0.676591,-0.198377,-0.94418,0.27178,-0.08899,4296.28,0.731271,-0.192294,0.527972,-0.386668,-0.90145,0.12338,-0.38248,2.18,2.64,2.73,2.77,3.17,3.02,3.02,3.83,3.16,3.89,4,3.91,3.75,3.82,3.72,2395,9.979167,60836.316167,307.560791,968.207947,-139.007217,1.10006327371302,2.45875130837679,2.02495395459714,36.808636,808.189148,165.303436,183.890167,1179.747437,-19.381575,"CRUZEXT"
53,16,53,56.369,4299.46,0.70914,0.001835,0.676553,-0.198477,-0.94303,0.27194,-0.08918,4296.3,0.731305,-0.192044,0.528083,-0.386575,-0.90131,0.12472,-0.38253,2.18,2.64,2.73,2.77,3.17,3.02,3.02,3.83,3.16,3.89,4,3.91,3.75,3.82,3.72,2408,10.033333,60836.370333,307.589569,968.148621,-138.885635,1.10022912854954,2.45880498021307,2.02505733442197,36.854649,808.158936,165.374847,183.942749,1179.725586,-19.218689,"CRUZEXT"
54,16,53,56.374,4299.48,0.709127,0.001779,0.676562,-0.198492,-0.94348,0.27152,-0.08672,4296.32,0.731297,-0.191947,0.528191,-0.386491,-0.89933,0.12701,-0.37939,2.18,2.64,2.73,2.77,3.17,3.02,3.02,3.83,3.16,3.89,4,3.91,3.75,3.82,3.72,2409,10.0375,60836.3745,307.589569,968.148621,-138.885635,1.10022912854954,2.45880498021307,2.02505733442197,36.854649,808.158936,165.374847,183.942749,1179.725586,-19.218689,"CRUZEXT"
55,16,53,56.39,4299.5,0.709073,0.001745,0.6766,-0.198555,-0.94191,0.2693,-0.08801,4296.34,0.731263,-0.192004,0.528197,-0.386519,-0.90037,0.12573,-0.37929,2.18,2.64,2.73,2.77,3.17,3.02,3.02,3.83,3.16,3.89,4,3.91,3.75,3.82,3.73,2413,10.054167,60836.391167,307.597931,968.118835,-138.852661,1.10028001117345,2.45878594327751,2.02513311110835,36.887394,808.151001,165.40097,183.951935,1179.71228,-19.15597,"CRUZEXT"
56,16,53,56.411,4299.52,0.709039,0.001699,0.676645,-0.198527,-0.94209,0.26768,-0.08925,4296.36,0.731255,-0.192148,0.528101,-0.386595,-0.90318,0.12331,-0.38009,2.18,2.64,2.73,2.77,3.17,3.02,3.02,3.83,3.16,3.89,4,3.91,3.75,3.82,3.72,2418,10.075,60836.412,307.603699,968.075989,-138.814316,1.10035816582988,2.45891690886552,2.02505061887462,36.928303,808.138977,165.430893,183.965622,1179.710938,-19.127115,"CRUZEXT"
57,16,53,56.416,4299.54,0.708993,0.00164,0.676695,-0.198519,-0.94376,0.2685,-0.08538,4296.38,0.731211,-0.19234,0.528049,-0.386653,-0.90411,0.12181,-0.37997,2.18,2.64,2.73,2.77,3.17,3.02,3.02,3.83,3.16,3.89,4,3.91,3.75,3.82,3.72,2419,10.079167,60836.416167,307.604675,968.067688,-138.807724,1.10035887470775,2.45886867334708,2.0251112236685,36.93763,808.138123,165.434341,183.960281,1179.705444,-19.099386,"CRUZEXT"
58,16,53,56.468,4299.56,0.708874,0.001619,0.676817,-0.198531,-0.94423,0.27053,-0.08589,4296.4,0.731243,-0.192512,0.527928,-0.386672,-0.90451,0.12081,-0.37955,2.18,2.64,2.73,2.77,3.17,3.02,3.02,3.83,3.16,3.89,4,3.91,3.75,3.82,3.72,2432,10.133333,60836.470333,307.59433,968.061157,-138.695099,1.10017602543919,2.45876541559962,2.0250520258488,36.987007,808.105652,165.453079,183.892487,1179.703369,-18.988699,"CRUZEXT"
59,16,53,56.473,4299.58,0.708848,0.001542,0.676853,-0.1985,-0.94346,0.27,-0.08503,4296.42,0.731227,-0.192582,0.527929,-0.386666,-0.90547,0.12327,-0.38081,2.18,2.64,2.73,2.77,3.17,3.02,3.02,3.83,3.16,3.89,4,3.91,3.75,3.82,3.72,2433,10.1375,60836.4745,307.595642,968.069092,-138.685867,1.10010881627985,2.45873106788698,2.02502577673931,36.987267,808.10022,165.451401,183.87236,1179.714111,-18.98097,"CRUZEXT"
60,16,53,56.492,4299.6,0.708811,0.001423,0.676902,-0.198466,-0.94416,0.26885,-0.08738,4296.44,0.731206,-0.192471,0.527994,-0.386672,-0.91042,0.12195,-0.38213,2.18,2.64,2.73,2.77,3.17,3.02,3.02,3.83,3.16,3.89,4,3.91,3.75,3.82,3.72,2438,10.158333,60836.495333,307.588959,968.141174,-138.650742,1.09971903706067,2.45834821610348,2.02510146088384,36.994804,808.077332,165.454315,183.768799,1179.723877,-18.925249,"CRUZEXT"
61,16,53,56.497,4299.62,0.708769,0.001361,0.67695,-0.198454,-0.94448,0.26498,-0.0874,4296.46,0.731185,-0.192241,0.528113,-0.386664,-0.90972,0.12219,-0.3783,2.18,2.64,2.73,2.77,3.17,3.02,3.02,3.83,3.16,3.89,4,3.91,3.75,3.82,3.72,2439,10.1625,60836.4995,307.585968,968.154114,-138.647186,1.09961593292676,2.45824068721664,2.02512922311977,36.991352,808.068909,165.458954,183.736404,1179.725708,-18.910692,"CRUZEXT"
62,16,53,56.531,4299.64,0.708713,0.001334,0.677012,-0.198444,-0.94388,0.26528,-0.08983,4296.48,0.731123,-0.192087,0.528182,-0.386764,-0.90414,0.11928,-0.37585,2.18,2.64,2.73,2.77,3.17,3.02,3.02,3.83,3.16,3.89,4,3.91,3.75,3.82,3.72,2447,10.195833,60836.532833,307.510376,968.279175,-138.619263,1.0990310859403,2.45761995448294,2.0252998843007,36.989204,808.011597,165.45578,183.498627,1179.777954,-18.821585,"CRUZEXT"
63,16,53,56.536,4299.66,0.708664,0.001357,0.677084,-0.198369,-0.94348,0.26683,-0.08915,4296.5,0.731013,-0.191946,0.528307,-0.386869,-0.90356,0.12047,-0.37444,2.18,2.64,2.73,2.77,3.17,3.02,3.02,3.83,3.16,3.89,4,3.91,3.75,3.82,3.72,2448,10.2,60836.537,307.494446,968.297058,-138.613037,1.09896249401251,2.4575496674654,2.02531675536351,36.98888,808.00708,165.46225,183.460098,1179.793823,-18.805498,"CRUZEXT"
64,16,53,56.588,4299.68,0.70857,0.001372,0.677202,-0.198302,-0.9417,0.26786,-0.08712,4296.52,0.73087,-0.191687,0.52849,-0.387018,-0.90653,0.11816,-0.37932,2.18,2.64,2.73,2.77,3.17,3.02,3.02,3.83,3.16,3.89,4,3.91,3.75,3.82,3.72,2461,10.254167,60836.591167,307.214844,968.590271,-138.614471,1.09834522066752,2.45653373670134,2.02594426920122,36.900867,807.881042,165.508759,183.009308,1179.947754,-18.63265,"CRUZEXT"
65,16,53,56.593,4299.7,0.708495,0.001363,0.677297,-0.198247,-0.94468,0.267,-0.08653,4296.54,0.730684,-0.191597,0.528624,-0.38723,-0.90667,0.11972,-0.37643,2.18,2.64,2.73,2.77,3.17,3.02,3.02,3.83,3.16,3.89,4,3.91,3.75,3.82,3.72,2462,10.258333,60836.595333,307.143402,968.64801,-138.624969,1.09830345387795,2.45644050687241,2.0260170916858,36.876472,807.854492,165.521469,182.927292,1179.990112,-18.624887,"CRUZEXT"
66,16,53,56.613,4299.72,0.708395,0.00137,0.677423,-0.198173,-0.94449,0.26599,-0.08848,4296.56,0.730445,-0.191698,0.52868,-0.387556,-0.90355,0.12415,-0.37742,2.18,2.64,2.73,2.77,3.17,3.02,3.02,3.83,3.16,3.89,4,3.91,3.75,3.82,3.72,2467,10.279167,60836.616167,306.953613,968.793762,-138.636429,1.09813596480242,2.45604105986316,2.02634078989084,36.83363,807.809875,165.536346,182.684357,1180.088013,-18.544977,"CRUZEXT"
67,16,53,56.618,4299.74,0.708228,0.001329,0.677602,-0.198157,-0.94053,0.26726,-0.0892,4296.58,0.730174,-0.191658,0.528807,-0.387913,-0.90653,0.11651,-0.37683,2.18,2.64,2.73,2.77,3.17,3.02,3.02,3.83,3.16,3.89,4,3.91,3.75,3.82,3.72,2468,10.283333,60836.620333,306.909271,968.825439,-138.638794,1.09823663493652,2.456053344334,2.02642882234119,36.820919,807.801147,165.542755,182.684357,1180.088013,-18.544977,"CRUZEXT"
68,16,53,56.669,4299.76,0.708102,0.001284,0.677715,-0.198221,-0.93839,0.26831,-0.0884,4296.6,0.729977,-0.191597,0.528839,-0.38827,-0.90784,0.11525,-0.37936,2.18,2.64,2.73,2.77,3.17,3.02,3.02,3.83,3.16,3.89,4,3.91,3.75,3.82,3.72,2480,10.333333,60836.670333,306.360687,969.206482,-138.642014,1.09755364042565,2.45461887283082,2.02750662760546,36.642952,807.699707,165.62912,181.900696,1180.338257,-18.21723,"CRUZEXT"
69,16,53,56.674,4299.78,0.707953,0.001193,0.67786,-0.198262,-0.94421,0.26941,-0.08759,4296.62,0.729757,-0.191488,0.528889,-0.388669,-0.90799,0.12306,-0.38164,2.18,2.64,2.73,2.77,3.17,3.02,3.02,3.83,3.16,3.89,4,3.91,3.75,3.82,3.73,2481,10.3375,60836.6745,306.254669,969.301025,-138.623718,1.09738674010236,2.45429868161822,2.02773220030074,36.607979,807.678162,165.644882,181.747787,1180.388062,-18.137531,"CRUZEXT"
70,16,53,56.692,4299.8,0.707799,0.001103,0.678022,-0.198256,-0.94692,0.26768,-0.08646,4296.64,0.729512,-0.191261,0.528974,-0.389125,-0.91159,0.12852,-0.38787,2.18,2.64,2.73,2.77,3.17,3.02,3.02,3.83,3.16,3.89,4,3.91,3.75,3.82,3.72,2486,10.358333,60836.695333,305.979736,969.572998,-138.577316,1.09690989482818,2.45339589210594,2.02836141950647,36.518124,807.598511,165.677658,181.364105,1180.491455,-17.943857,"CRUZEXT"
71,16,53,56.697,4299.82,0.707669,0.001095,0.678192,-0.198137,-0.94362,0.26894,-0.0869,4296.66,0.72938,-0.190878,0.528961,-0.389577,-0.91098,0.12062,-0.38839,2.18,2.64,2.73,2.77,3.17,3.02,3.02,3.83,3.16,3.89,4,3.91,3.75,3.82,3.72,2487,10.3625,60836.6995,305.931244,969.633789,-138.565598,1.09680342277916,2.45320603899947,2.02848732716802,36.49572,807.593018,165.683838,181.296036,1180.508667,-17.907387,"CRUZEXT"
72,16,53,56.752,4299.84,0.707488,0.001082,0.678425,-0.197988,-0.94393,0.26927,-0.08674,4296.68,0.72925,-0.190382,0.528963,-0.390061,-0.90332,0.11994,-0.38227,2.18,2.64,2.73,2.77,3.17,3.02,3.02,3.83,3.16,3.89,4,3.91,3.75,3.82,3.72,2500,10.416667,60836.753667,305.1586,970.442444,-138.333542,1.09530732131113,2.45074795313472,2.02999494762717,36.152325,807.380554,165.794693,180.164917,1180.88208,-17.310886,"CRUZEXT"
73,16,53,56.757,4299.86,0.70727,0.001002,0.678694,-0.197845,-0.94237,0.26559,-0.08215,4296.7,0.729134,-0.189812,0.529008,-0.390494,-0.90508,0.12945,-0.38536,2.18,2.64,2.73,2.77,3.17,3.02,3.02,3.83,3.16,3.89,4,3.91,3.75,3.82,3.73,2501,10.420833,60836.757833,305.101379,970.515503,-138.312241,1.09512193276327,2.45051235258425,2.03009622916352,36.123558,807.358582,165.80751,180.065643,1180.90918,-17.267651,"CRUZEXT"
74,16,53,56.774,4299.88,0.707033,0.000839,0.678944,-0.197832,-0.94207,0.26639,-0.08407,4296.72,0.729005,-0.189051,0.529131,-0.390936,-0.91075,0.13471,-0.38965,2.18,2.64,2.73,2.77,3.17,3.02,3.02,3.83,3.16,3.89,4,3.91,3.75,3.82,3.72,2505,10.4375,60836.7745,304.892242,970.829834,-138.205566,1.0941762473342,2.44939662140237,2.0305058845745,35.986504,807.278381,165.84256,179.618164,1181.044067,-17.052164,"CRUZEXT"
75,16,53,56.779,4299.9,0.706796,0.000628,0.679182,-0.197866,-0.94388,0.26575,-0.08248,4296.74,0.728916,-0.188007,0.52918,-0.39154,-0.90848,0.13736,-0.38674,2.18,2.64,2.73,2.76,3.17,3.02,3.02,3.83,3.16,3.89,4,3.91,3.75,3.82,3.72,2507,10.445833,60836.782833,304.802734,971.004578,-138.157791,1.09363942219289,2.44878498169986,2.03071116569565,35.911861,807.237305,165.861877,179.401993,1181.106201,-16.957605,"CRUZEXT"
76,16,53,56.81,4299.92,0.706527,0.000436,0.679444,-0.197927,-0.94425,0.26636,-0.08423,4296.76,0.728761,-0.186806,0.529267,-0.392285,-0.90161,0.14207,-0.38388,2.18,2.64,2.73,2.76,3.17,3.02,3.02,3.83,3.16,3.89,4,3.91,3.75,3.82,3.73,2514,10.475,60836.812,304.473053,971.701294,-138.052521,1.09166032269787,2.44616375300503,2.03191763435858,35.640682,807.066223,165.923279,178.60408,1181.325806,-16.568382,"CRUZEXT"
77,16,53,56.836,4299.94,0.706225,0.000256,0.67974,-0.19799,-0.94235,0.26665,-0.08712,4296.78,0.728372,-0.185587,0.529551,-0.393202,-0.90465,0.14969,-0.37537,2.18,2.64,2.73,2.76,3.17,3.02,3.02,3.83,3.16,3.89,4,3.91,3.75,3.82,3.72,2520,10.5,60836.837,304.200989,972.423035,-138.011826,1.08940745956558,2.44314442569977,2.03332898598931,35.378063,806.90741,165.987411,177.788635,1181.514893,-16.184769,"CRUZEXT"
78,16,53,56.842,4299.96,0.705917,9.4e-05,0.680038,-0.198064,-0.94146,0.26631,-0.0848,4296.8,0.727742,-0.184225,0.530175,-0.394166,-0.91077,0.15698,-0.3746,2.18,2.64,2.73,2.76,3.17,3.02,3.02,3.83,3.16,3.89,4,3.91,3.75,3.82,3.72,2522,10.508333,60836.845333,304.099396,972.679871,-138.005524,1.08867973684281,2.44206236291002,2.03391513525983,35.283283,806.850769,166.016098,177.508957,1181.584961,-16.033331,"CRUZEXT"
79,16,53,56.89,4299.98,0.705581,-3.6e-05,0.680379,-0.19809,-0.94327,0.26515,-0.08266,4296.82,0.727022,-0.182765,0.530934,-0.395152,-0.91333,0.1537,-0.37664,2.18,2.64,2.73,2.76,3.17,3.02,3.02,3.83,3.16,3.89,4,3.91,3.75,3.82,3.72,2533,10.554167,60836.891167,303.410126,974.319763,-138.234573,1.08487439419683,2.4355448349728,2.03802325477826,34.783451,806.486511,166.180084,175.916626,1182.047729,-15.2759,"CRUZEXT"
80,16,53,56.895,4300,0.705234,-0.00016,0.680725,-0.198137,-0.94308,0.2659,-0.08168,4296.84,0.72627,-0.1812,0.531735,-0.396178,-0.9071,0.15018,-0.37034,2.18,2.64,2.74,2.76,3.17,3.02,3.02,3.83,3.16,3.89,4,3.9,3.75,3.82,3.72,2534,10.558333,60836.895333,303.325012,974.467834,-138.26738,1.0844860122778,2.43482958629156,2.03850237561406,34.735909,806.45813,166.193726,175.72522,1182.089478,-15.179838,"CRUZEXT"
81,16,53,56.912,4300.02,0.70486,-0.000258,0.681112,-0.198135,-0.94069,0.26897,-0.07741,4296.86,0.725234,-0.180213,0.532512,-0.39748,-0.91774,0.15424,-0.36513,2.18,2.64,2.73,2.76,3.17,3.02,3.02,3.83,3.16,3.89,3.99,3.91,3.75,3.82,3.72,2538,10.575,60836.912,302.948059,975.164124,-138.434036,1.08308059670333,2.43199306678023,2.04053731554177,34.550903,806.325867,166.250992,175.006271,1182.286743,-14.848035,"CRUZEXT"
82,16,53,56.92,4300.04,0.70445,-0.000363,0.681542,-0.198117,-0.93999,0.27018,-0.07739,4296.88,0.723973,-0.179331,0.53334,-0.399064,-0.91216,0.16499,-0.36663,2.18,2.64,2.73,2.76,3.17,3.02,3.02,3.83,3.16,3.89,4,3.91,3.74,3.82,3.72,2540,10.583333,60836.920333,302.726166,975.505615,-138.508026,1.08242630417431,2.43065074832834,2.04150935280405,34.458103,806.253662,166.287155,174.631577,1182.381226,-14.690254,"CRUZEXT"
83,16,53,56.97,4300.06,0.70403,-0.000467,0.681979,-0.198106,-0.94231,0.27089,-0.07485,4296.9,0.722653,-0.1782,0.534188,-0.400824,-0.90084,0.16677,-0.36825,2.18,2.63,2.73,2.76,3.17,3.02,3.02,3.83,3.16,3.89,4,3.91,3.75,3.82,3.73,2552,10.633333,60836.970333,301.395538,977.502869,-139.157181,1.0783114595091,2.42194933012578,2.04790798453887,33.855293,805.791443,166.563385,172.225555,1182.954712,-13.703053,"CRUZEXT"
84,16,53,56.975,4300.08,0.70362,-0.000551,0.682428,-0.198018,-0.94334,0.2674,-0.06881,4296.92,0.721215,-0.176983,0.53503,-0.402826,-0.8856,0.16996,-0.36243,2.18,2.63,2.73,2.76,3.17,3.02,3.02,3.83,3.16,3.89,4,3.91,3.75,3.82,3.73,2554,10.641667,60836.978667,301.153534,977.846191,-139.250092,1.07759288494617,2.42049682682162,2.048938278995,33.762463,805.699036,166.615051,171.807922,1183.040527,-13.543388,"CRUZEXT"
85,16,53,56.994,4300.1,0.703192,-0.000635,0.682905,-0.197894,-0.94095,0.26746,-0.07028,4296.94,0.7195,-0.175905,0.536037,-0.405021,-0.89814,0.17517,-0.37198,2.18,2.63,2.73,2.76,3.17,3.02,3.02,3.83,3.16,3.89,4,3.91,3.74,3.82,3.72,2558,10.658333,60836.995333,300.656311,978.601013,-139.482559,1.07606092417621,2.41725573964703,2.05130458575132,33.541946,805.515869,166.746628,170.918579,1183.246948,-13.17924,"CRUZEXT"
86,16,53,56.999,4300.12,0.702743,-0.000711,0.683412,-0.197737,-0.94141,0.26993,-0.07084,4296.96,0.717737,-0.174354,0.537225,-0.407238,-0.90444,0.17688,-0.37331,2.18,2.63,2.73,2.76,3.17,3.02,3.02,3.83,3.16,3.89,4,3.91,3.74,3.82,3.73,2559,10.6625,60836.9995,300.535583,978.771301,-139.55452,1.07570818564229,2.41652726914171,2.05182678930233,33.48336,805.464417,166.773636,170.701797,1183.302979,-13.113745,"CRUZEXT"
87,16,53,57.051,4300.14,0.702232,-0.000807,0.683968,-0.19763,-0.9438,0.27049,-0.07293,4296.98,0.715869,-0.172607,0.53841,-0.409699,-0.8879,0.19184,-0.35611,2.18,2.63,2.73,2.76,3.17,3.02,3.02,3.83,3.16,3.89,3.99,3.91,3.75,3.82,3.72,2572,10.716667,60837.053667,298.961487,980.98999,-141.117004,1.07161642206123,2.40529417493883,2.06119518411684,32.864372,804.897339,167.196533,167.797974,1184.01001,-12.070906,"CRUZEXT"
88,16,53,57.056,4300.16,0.70168,-0.000898,0.684556,-0.197553,-0.94393,0.26892,-0.07021,4297,0.713726,-0.170884,0.539574,-0.412618,-0.87531,0.21891,-0.32035,2.18,2.63,2.73,2.76,3.17,3.02,3.02,3.83,3.16,3.89,4,3.91,3.75,3.82,3.72,2573,10.720833,60837.057833,298.828156,981.150574,-141.308594,1.0714502523598,2.40432650468407,2.06218545844362,32.794518,804.847595,167.230927,167.586227,1184.05188,-11.985324,"CRUZEXT"
89,16,53,57.07,4300.18,0.701065,-0.001013,0.68521,-0.197469,-0.94099,0.2659,-0.06906,4297.02,0.711064,-0.169107,0.54094,-0.416142,-0.86544,0.24116,-0.29918,2.18,2.63,2.73,2.76,3.16,3.02,3.02,3.83,3.16,3.89,4,3.91,3.75,3.82,3.72,2576,10.733333,60837.070333,298.378693,981.616272,-141.953461,1.07110449407515,2.40118534531559,2.06558718854706,32.611591,804.665649,167.347397,166.892776,1184.185547,-11.649565,"CRUZEXT"
90,16,53,57.091,4300.2,0.700452,-0.001078,0.685869,-0.197354,-0.94299,0.26787,-0.06581,4297.04,0.707492,-0.16772,0.542689,-0.420492,-0.86881,0.24983,-0.30157,2.18,2.63,2.73,2.76,3.17,3.02,3.02,3.83,3.16,3.89,4,3.91,3.75,3.82,3.72,2581,10.754167,60837.091167,297.634216,982.500793,-143.087875,1.07035466361906,2.39554723778117,2.07153091072647,32.251656,804.34082,167.550064,165.751648,1184.353882,-11.134673,"CRUZEXT"
91,16,53,57.096,4300.22,0.699812,-0.001091,0.686567,-0.197198,-0.94495,0.26889,-0.06676,4297.06,0.703115,-0.16653,0.544826,-0.425514,-0.91408,0.2534,-0.34802,2.18,2.63,2.73,2.76,3.17,3.02,3.02,3.83,3.16,3.89,4,3.91,3.75,3.82,3.72,2583,10.7625,60837.0995,297.341675,983.00769,-143.554855,1.06973802958115,2.39270344828687,2.07427610386863,32.108246,804.21521,167.633286,165.25412,1184.415283,-10.883681,"CRUZEXT"
92,16,53,57.13,4300.24,0.699156,-0.00107,0.687307,-0.196948,-0.94151,0.26903,-0.06149,4297.08,0.698512,-0.164155,0.547341,-0.430756,-0.95307,0.2428,-0.37699,2.18,2.63,2.73,2.76,3.17,3.02,3.02,3.83,3.16,3.89,4,3.91,3.75,3.82,3.73,2591,10.795833,60837.132833,296.247162,985.331238,-145.51152,1.06684430684126,2.38035774207734,2.08588125624058,31.515255,803.739868,167.928162,163.177475,1184.839233,-9.763643,"CRUZEXT"
93,16,53,57.15,4300.26,0.6985,-0.001089,0.688075,-0.196597,-0.93902,0.26599,-0.06407,4297.1,0.693903,-0.160218,0.550269,-0.435928,-0.93441,0.28596,-0.34644,2.18,2.63,2.74,2.76,3.17,3.02,3.02,3.83,3.16,3.89,3.99,3.91,3.75,3.82,3.72,2596,10.816667,60837.153667,295.519409,987.06543,-147.034546,1.06540247312276,2.37155753426028,2.09466771150361,31.146315,803.437866,168.158447,161.913025,1185.172974,-8.989636,"CRUZEXT"
94,16,53,57.157,4300.28,0.697887,-0.001089,0.688893,-0.195909,-0.94165,0.2512,-0.0561,4297.12,0.688799,-0.156319,0.552955,-0.441997,-0.8882,0.31951,-0.30858,2.18,2.63,2.73,2.76,3.17,3.02,3.02,3.83,3.16,3.89,4,3.91,3.75,3.82,3.73,2597,10.820833,60837.157833,295.364136,987.434021,-147.35585,1.06506633420284,2.36964126390895,2.09654796305143,31.072762,803.373657,168.211212,161.632172,1185.23877,-8.815877,"CRUZEXT"
95,16,53,57.212,4300.3,0.697313,-0.00103,0.689662,-0.195242,-0.94383,0.27466,-0.0569,4297.14,0.682605,-0.153221,0.555684,-0.449209,-0.88838,0.34028,-0.30687,2.18,2.63,2.73,2.76,3.17,3.02,3.02,3.83,3.16,3.89,4,3.91,3.75,3.82,3.72,2610,10.875,60837.212,292.359436,993.233093,-152.544968,1.06403257963879,2.34169772640875,2.12720274318941,30.105663,802.513977,168.8423,158.077881,1186.011353,-6.425334,"CRUZEXT"
96,16,53,57.217,4300.32,0.696729,-0.001007,0.69044,-0.194578,-0.94432,0.26953,-0.05261,4297.16,0.675672,-0.150261,0.558466,-0.45717,-0.93811,0.34877,-0.31527,2.18,2.63,2.73,2.76,3.16,3.02,3.02,3.83,3.16,3.89,4,3.91,3.74,3.82,3.73,2612,10.883333,60837.220333,291.85733,994.128235,-153.44754,1.06408177423562,2.3371007430246,2.13235852056952,29.959387,802.372314,168.939713,157.503616,1186.112305,-6.02634,"CRUZEXT"
97,16,53,57.234,4300.34,0.696118,-0.000994,0.691248,-0.193896,-0.95077,0.27101,-0.04925,4297.18,0.668572,-0.147577,0.560438,-0.465985,-0.91366,0.31771,-0.30762,2.18,2.63,2.73,2.76,3.17,3.02,3.02,3.83,3.16,3.89,4,3.91,3.75,3.82,3.72,2616,10.9,60837.237,290.764435,995.943542,-155.441345,1.06477946649561,2.32769429056169,2.14338036620691,29.669907,802.073547,169.159164,156.389191,1186.312744,-5.233562,"CRUZEXT"
98,16,53,57.239,4300.36,0.69544,-0.001026,0.692128,-0.193186,-0.94613,0.26045,-0.04415,4297.2,0.6612,-0.142757,0.563443,-0.474307,-0.90128,0.47907,-0.24916,2.18,2.63,2.73,2.76,3.17,3.02,3.02,3.83,3.16,3.89,4,3.91,3.75,3.82,3.73,2617,10.904167,60837.241167,290.487,996.404541,-155.941849,1.06493130904348,2.32524908008185,2.14619812948242,29.599123,802.003235,169.210846,156.09639,1186.354126,-5.019467,"CRUZEXT"
99,16,53,57.271,4300.38,0.694752,-0.001019,0.693013,-0.192489,-0.94477,0.26406,-0.04274,4297.22,0.652543,-0.139073,0.565361,-0.484989,-0.88152,0.35062,-0.33644,2.18,2.63,2.73,2.76,3.17,3.02,3.02,3.83,3.16,3.89,4,3.91,3.75,3.82,3.73,2625,10.9375,60837.2745,288.341797,1000.535339,-159.890549,1.06537695842456,2.30441756423682,2.1691198162514,28.950634,801.416931,169.76857,153.8022,1186.589844,-3.375663,"CRUZEXT"
100,16,53,57.276,4300.4,0.69397,-0.001037,0.693963,-0.191885,-0.94416,0.27054,-0.04424,4297.24,0.643134,-0.135156,0.56767,-0.495845,-0.86279,0.3799,-0.33817,2.18,2.63,2.73,2.76,3.17,3.02,3.02,3.83,3.16,3.89,4,3.91,3.75,3.82,3.72,2626,10.941667,60837.278667,288.075439,1001.137634,-160.377151,1.06536451057465,2.30162040651915,2.17209310020426,28.869678,801.337769,169.848053,153.5242,1186.625977,-3.170219,"CRUZEXT"
101,16,53,57.328,4300.42,0.693159,-0.001094,0.69496,-0.191209,-0.94308,0.26254,-0.04089,4297.26,0.633172,-0.131705,0.571606,-0.504989,-0.85788,0.5176,-0.30974,2.18,2.63,2.74,2.76,3.17,3.02,3.02,3.83,3.16,3.89,4,3.91,3.75,3.82,3.72,2638,10.991667,60837.328667,284.549255,1008.173096,-166.590637,1.06750584234524,2.26790294091293,2.20930037635867,27.887548,800.465637,170.731552,150.240021,1186.95166,-0.623698,"CRUZEXT"
102,16,53,57.333,4300.44,0.692334,-0.001079,0.695981,-0.190482,-0.94362,0.27328,-0.04318,4297.28,0.622634,-0.12701,0.575973,-0.514248,-0.89539,0.40402,-0.30908,2.18,2.64,2.73,2.76,3.16,3.02,3.02,3.83,3.16,3.89,4,3.91,3.75,3.82,3.73,2640,11,60837.337,283.876343,1009.390808,-167.653046,1.06825534949307,2.26214052063584,2.21586941336597,27.714859,800.324219,170.867508,149.700333,1187.001831,-0.158829,"CRUZEXT"
103,16,53,57.351,4300.46,0.691516,-0.001155,0.696982,-0.189789,-0.94345,0.2662,-0.03571,4297.3,0.611655,-0.124283,0.578331,-0.525324,-0.88649,0.44458,-0.3144,2.18,2.64,2.74,2.76,3.17,3.02,3.02,3.84,3.16,3.89,4,3.91,3.75,3.82,3.72,2644,11.016667,60837.353667,283.459229,1009.704224,-170.053574,1.07007039682112,2.25517873456118,2.22454874057878,27.376343,800.078552,171.158127,148.678345,1187.197266,0.694214,"CRUZEXT"
104,16,53,57.356,4300.48,0.690698,-0.001062,0.697991,-0.189057,-0.95004,0.26695,-0.03258,4297.32,0.600826,-0.121512,0.58074,-0.535708,-0.87167,0.45897,-0.32439,2.18,2.64,2.73,2.76,3.17,3.02,3.02,3.83,3.16,3.89,4,3.91,3.75,3.82,3.72,2645,11.020833,60837.357833,283.459229,1009.704224,-170.053574,1.06954510211714,2.25442155472841,2.22485847313268,27.291733,800.028809,171.229324,148.402557,1187.224976,0.94864,"CRUZEXT"
105,16,53,57.39,4300.5,0.689948,-0.001195,0.6989,-0.188437,-0.94807,0.26491,-0.02764,4297.34,0.59004,-0.118723,0.583144,-0.545619,-0.86318,0.47661,-0.32321,2.18,2.64,2.74,2.76,3.17,3.02,3.02,3.83,3.16,3.89,4,3.91,3.75,3.82,3.72,2653,11.054167,60837.391167,283.459229,1009.704224,-170.053574,1.06577697665135,2.24952766046293,2.22651920565853,26.700171,799.607971,171.709442,146.339783,1187.62915,2.749137,"CRUZEXT"
106,16,53,57.411,4300.52,0.689256,-0.001116,0.699811,-0.187591,-0.95353,0.24086,-0.01929,4297.36,0.579247,-0.115582,0.585537,-0.555211,-0.84877,0.50059,-0.32199,2.18,2.63,2.74,2.76,3.17,3.02,3.02,3.83,3.16,3.89,4,3.91,3.75,3.82,3.72,2658,11.075,60837.412,283.459229,1009.704224,-170.053574,1.06346114334833,2.24651778870548,2.22752838493641,26.393288,799.298645,172.010727,145.026825,1187.915649,3.904306,"CRUZEXT"
107,16,53,57.416,4300.54,0.688636,-0.001046,0.700641,-0.186764,-0.95862,0.28791,-0.01918,4297.38,0.568562,-0.112129,0.58787,-0.564423,-0.83067,0.51845,-0.31989,2.18,2.64,2.74,2.76,3.17,3.02,3.02,3.83,3.16,3.89,4,3.91,3.75,3.82,3.72,2659,11.079167,60837.416167,283.459229,1009.704224,-170.053574,1.06303650562581,2.24597924806124,2.22769881991806,26.332769,799.233704,172.075073,144.790421,1187.963867,4.106872,"CRUZEXT"
108,16,53,57.47,4300.56,0.688005,-0.001132,0.701466,-0.185993,-0.95579,0.25171,-0.01004,4297.4,0.557552,-0.108216,0.590539,-0.573314,-0.80202,0.55132,-0.30312,2.18,2.64,2.74,2.76,3.17,3.02,3.02,3.83,3.16,3.89,4,3.91,3.75,3.82,3.73,2672,11.133333,60837.470333,283.459229,1009.704224,-170.053574,1.05770241575987,2.23868000879552,2.23034716276043,26.158913,798.005798,172.502701,141.617355,1188.662842,7.008379,"CRUZEXT"
109,16,53,57.475,4300.58,0.687371,-0.001045,0.702299,-0.185191,-0.95147,0.24041,-0.00643,4297.42,0.546608,-0.104445,0.592951,-0.581997,-0.78076,0.5343,-0.29947,2.18,2.64,2.74,2.77,3.17,3.02,3.02,3.83,3.16,3.89,4,3.91,3.75,3.82,3.72,2674,11.141667,60837.478667,283.459229,1009.704224,-170.053574,1.05687595469639,2.23748422288716,2.23081724541519,26.065399,797.896179,172.616302,141.13118,1188.741333,7.462639,"CRUZEXT"
110,16,53,57.493,4300.6,0.686732,-0.001158,0.703099,-0.184527,-0.95178,0.27208,-0.00488,4297.44,0.535747,-0.100544,0.595397,-0.590227,-0.78169,0.55507,-0.28509,2.18,2.64,2.74,2.76,3.17,3.02,3.02,3.83,3.16,3.89,4,3.91,3.75,3.82,3.73,2678,11.158333,60837.495333,283.459229,1009.704224,-170.053574,1.05540792024059,2.23557482358775,2.23143337382001,25.361662,798.3125,173.087997,140.23848,1188.960815,8.254313,"CRUZEXT"
111,16,53,57.512,4300.62,0.686099,-0.001279,0.703896,-0.18384,-0.95203,0.2514,-0.00302,4297.46,0.524968,-0.096344,0.598232,-0.5977,-0.75187,0.60085,-0.27987,2.18,2.64,2.74,2.77,3.17,3.02,3.02,3.83,3.16,3.89,4,3.91,3.75,3.82,3.73,2682,11.175,60837.512,283.459229,1009.704224,-170.053574,1.05392226572933,2.23345584436312,2.23223933752927,25.205395,798.122498,173.283951,139.303497,1189.172363,9.134664,"CRUZEXT"
112,16,53,57.517,4300.64,0.685457,-0.001073,0.704734,-0.183023,-0.9526,0.24283,-0.00218,4297.48,0.514187,-0.092512,0.600759,-0.605097,-0.72745,0.60704,-0.27881,2.18,2.64,2.74,2.76,3.17,3.02,3.02,3.83,3.16,3.89,4,3.91,3.75,3.82,3.73,2684,11.183333,60837.520333,283.459229,1009.704224,-170.053574,1.05333043009821,2.23261805189504,2.23255270194401,25.133869,798.040649,173.365707,138.924789,1189.263672,9.490811,"CRUZEXT"
113,16,53,57.55,4300.66,0.684891,-0.001216,0.705441,-0.182418,-0.95023,0.26643,-0.00485,4297.5,0.503237,-0.088927,0.603175,-0.612393,-0.7187,0.60985,-0.27635,2.18,2.64,2.74,2.77,3.17,3.02,3.02,3.84,3.16,3.89,4,3.91,3.75,3.82,3.73,2692,11.216667,60837.553667,283.459229,1009.704224,-170.053574,1.0512449635925,2.22912289882229,2.23419250012941,24.345816,798.161316,173.420258,137.43924,1189.635376,11.05466,"CRUZEXT"
114,16,53,57.571,4300.68,0.684332,-0.001394,0.706128,-0.181855,-0.95381,0.25262,-0.00377,4297.52,0.492149,-0.085061,0.605547,-0.61957,-0.71221,0.64661,-0.26071,2.18,2.64,2.74,2.77,3.17,3.02,3.02,3.83,3.16,3.89,4.01,3.91,3.75,3.82,3.72,2697,11.2375,60837.5745,283.459229,1009.704224,-170.053574,1.05008719025626,2.22711351450869,2.23516631723108,24.183334,798.034729,173.631119,136.561707,1189.88147,12.001597,"CRUZEXT"
115,16,53,57.576,4300.7,0.683763,-0.001162,0.706869,-0.181118,-0.95642,0.23401,0.00291,4297.54,0.48127,-0.081322,0.607881,-0.626296,-0.70347,0.66434,-0.25905,2.18,2.64,2.74,2.77,3.17,3.02,3.02,3.83,3.16,3.89,4,3.91,3.75,3.82,3.73,2698,11.241667,60837.578667,283.459229,1009.704224,-170.053574,1.04989937740231,2.22676812853208,2.23534325458031,24.148031,798.006104,173.673019,136.403946,1189.935059,12.178615,"CRUZEXT"
116,16,53,57.612,4300.72,0.683351,-0.001209,0.707435,-0.180463,-0.95773,0.27849,0.00148,4297.56,0.469947,-0.077688,0.610632,-0.632648,-0.68549,0.69742,-0.25453,2.19,2.64,2.74,2.76,3.17,3.02,3.02,3.83,3.16,3.89,4,3.91,3.75,3.82,3.73,2706,11.275,60837.612,283.459229,1009.704224,-170.053574,1.04854577519724,2.22383919436177,2.23705186482419,23.902084,797.804626,174.012619,135.194992,1190.298584,13.643992,"CRUZEXT"
117,16,53,57.617,4300.74,0.682913,-0.001263,0.708034,-0.179766,-0.95717,0.24194,0.00323,4297.58,0.458561,-0.074197,0.613253,-0.638856,-0.66689,0.70241,-0.25014,2.19,2.64,2.74,2.77,3.17,3.02,3.02,3.83,3.16,3.89,4,3.91,3.75,3.82,3.73,2708,11.283333,60837.620333,283.459229,1009.704224,-170.053574,1.04826650606174,2.22313545182223,2.23750212370942,23.852953,797.765442,174.090927,134.914383,1190.38623,14.007748,"CRUZEXT"
118,16,53,57.65,4300.76,0.682522,-0.001028,0.708598,-0.179027,-0.95478,0.25509,0.00246,4297.6,0.447561,-0.070804,0.615357,-0.64499,-0.66443,0.71211,-0.24512,2.19,2.64,2.74,2.77,3.17,3.02,3.02,3.83,3.16,3.89,4,3.91,3.75,3.82,3.73,2716,11.316667,60837.653667,283.459229,1009.704224,-170.053574,1.0474101429106,2.22044178425069,2.23941063780937,23.696486,797.602905,174.366531,133.912308,1190.69397,15.422777,"CRUZEXT"
119,16,53,57.671,4300.78,0.682212,-0.001175,0.709045,-0.178443,-0.95483,0.25405,0.00506,4297.62,0.436533,-0.06752,0.617262,-0.651051,-0.65541,0.73443,-0.23954,2.18,2.64,2.74,2.77,3.17,3.02,3.02,3.83,3.16,3.89,4,3.91,3.75,3.82,3.72,2721,11.3375,60837.6745,283.459229,1009.704224,-170.053574,1.04678889381008,2.21882379509364,2.24045878093233,23.632975,797.531555,174.525116,133.247131,1190.916504,16.294262,"CRUZEXT"
120,16,53,57.675,4300.8,0.681908,-0.001052,0.709553,-0.177584,-0.9541,0.22649,0.01303,4297.64,0.425524,-0.064108,0.618968,-0.657037,-0.64073,0.75879,-0.23101,2.19,2.64,2.74,2.76,3.17,3.02,3.02,3.84,3.16,3.89,4,3.91,3.75,3.82,3.73,2722,11.341667,60837.678667,283.459229,1009.704224,-170.053574,1.04671632781579,2.21858572938312,2.24062957484309,23.628256,797.514221,174.550079,133.140518,1190.965332,16.443331,"CRUZEXT"
121,16,53,57.712,4300.82,0.681701,-0.000907,0.709914,-0.17693,-0.95555,0.27813,0.00766,4297.66,0.414635,-0.061062,0.619769,-0.663503,-0.62854,0.74656,-0.22775,2.19,2.64,2.73,2.77,3.17,3.02,3.02,3.83,3.16,3.89,4,3.91,3.75,3.82,3.72,2730,11.375,60837.712,283.459229,1009.704224,-170.053574,1.04628651335337,2.21638184752847,2.24242363384615,23.623133,797.413086,174.730743,132.363327,1191.23645,17.692326,"CRUZEXT"
122,16,53,57.717,4300.84,0.681477,-0.000906,0.710309,-0.176209,-0.95564,0.24377,0.01313,4297.68,0.403322,-0.058394,0.620203,-0.670275,-0.59248,0.74374,-0.2184,2.19,2.64,2.74,2.77,3.17,3.02,3.02,3.83,3.16,3.89,4,3.91,3.75,3.82,3.73,2732,11.383333,60837.720333,283.459229,1009.704224,-170.053574,1.04623367439746,2.21584707451747,2.24290407935809,23.633303,797.395874,174.767487,132.174835,1191.317261,18.022957,"CRUZEXT"
123,16,53,57.751,4300.86,0.681264,-0.000685,0.710686,-0.175513,-0.95654,0.24915,0.01637,4297.7,0.391672,-0.056047,0.620519,-0.677058,-0.55716,0.74186,-0.20293,2.19,2.64,2.74,2.76,3.17,3.02,3.02,3.83,3.16,3.89,4,3.91,3.75,3.82,3.72,2740,11.416667,60837.753667,283.459229,1009.704224,-170.053574,1.04631451917639,2.21410389927724,2.24469329174807,23.680256,797.372986,174.875351,131.643631,1191.557861,19.133879,"CRUZEXT"
124,16,53,57.756,4300.88,0.681109,-0.000642,0.711002,-0.174832,-0.95691,0.24632,0.01606,4297.72,0.38011,-0.053475,0.620826,-0.683544,-0.55704,0.76669,-0.19889,2.19,2.64,2.74,2.77,3.17,3.02,3.02,3.83,3.15,3.89,4,3.91,3.75,3.82,3.73,2741,11.420833,60837.757833,283.459229,1009.704224,-170.053574,1.04630877037489,2.21384538487423,2.24494259463985,23.688019,797.369812,174.887054,131.576904,1191.573242,19.274229,"CRUZEXT"
125,16,53,57.808,4300.9,0.680935,-0.000183,0.711347,-0.174106,-0.95804,0.22133,0.018,4297.74,0.368214,-0.050861,0.621583,-0.689541,-0.54996,0.80451,-0.20232,2.19,2.64,2.74,2.77,3.17,3.02,3.02,3.83,3.14,3.89,4,3.91,3.75,3.82,3.73,2754,11.475,60837.812,283.459229,1009.704224,-170.053574,1.04692327646167,2.21119359942271,2.24809369434301,23.887491,797.393127,175.255524,130.911591,1191.916382,21.055571,"CRUZEXT"
126,16,53,57.813,4300.92,0.680913,0.000196,0.711527,-0.173452,-0.95891,0.26421,0.0144,4297.76,0.356319,-0.048037,0.623175,-0.694538,-0.53094,0.84945,-0.22754,2.19,2.64,2.74,2.77,3.17,3.02,3.02,3.83,3.14,3.89,4,3.91,3.75,3.82,3.72,2755,11.479167,60837.816167,283.459229,1009.704224,-170.053574,1.0469919264056,2.21101193081202,2.24833279077364,23.909874,797.396423,175.297791,130.862778,1191.951904,21.196281,"CRUZEXT"
127,16,53,57.831,4300.94,0.680919,0.000351,0.7117,-0.17272,-0.95548,0.24775,0.01418,4297.78,0.344591,-0.045124,0.62466,-0.6993,-0.52584,0.84971,-0.24538,2.19,2.64,2.74,2.77,3.17,3.02,3.01,3.83,3.14,3.89,4,3.91,3.75,3.82,3.73,2759,11.495833,60837.832833,283.459229,1009.704224,-170.053574,1.04750239767001,2.21053537787506,2.24925252273378,23.999479,797.426025,175.480835,130.735413,1192.14856,21.744152,"CRUZEXT"
128,16,53,57.836,4300.96,0.680972,0.000446,0.7118,-0.172099,-0.95403,0.24576,0.01116,4297.8,0.333205,-0.042398,0.625374,-0.704332,-0.5061,0.83632,-0.2481,2.19,2.64,2.74,2.77,3.17,3.02,3.01,3.83,3.14,3.89,4,3.91,3.75,3.82,3.73,2760,11.5,60837.837,283.459229,1009.704224,-170.053574,1.04760897387049,2.21048715329079,2.24939419823884,24.022356,797.437378,175.529831,130.704483,1192.207397,21.85216,"CRUZEXT"
129,16,53,57.87,4300.98,0.680994,0.000874,0.711892,-0.171628,-0.95694,0.2614,0.01285,4297.82,0.32207,-0.040091,0.625908,-0.709157,-0.47818,0.82241,-0.24845,2.19,2.64,2.74,2.77,3.17,3.02,3.01,3.83,3.14,3.89,4,3.91,3.75,3.82,3.72,2768,11.533333,60837.870333,283.459229,1009.704224,-170.053574,1.04823451554707,2.20924886241825,2.25116060593353,24.220953,797.513062,175.879486,130.409592,1192.453491,22.852783,"CRUZEXT"
130,16,53,57.894,4301,0.681134,0.000753,0.711825,-0.171353,-0.95621,0.2602,0.01081,4297.84,0.310935,-0.037716,0.626504,-0.713715,-0.46095,0.8291,-0.24339,2.19,2.64,2.74,2.77,3.17,3.02,3.01,3.83,3.14,3.89,4,3.91,3.75,3.82,3.73,2774,11.558333,60837.895333,283.459229,1009.704224,-170.053574,1.0486825149457,2.20830750524685,2.25247734291967,24.404533,797.537109,176.12294,130.05983,1192.781128,23.758823,"CRUZEXT"
131,16,53,57.899,4301.02,0.681245,0.000464,0.711766,-0.171157,-0.95639,0.24942,0.01393,4297.86,0.299977,-0.035358,0.627293,-0.717821,-0.42679,0.837,-0.23664,2.19,2.64,2.74,2.77,3.17,3.02,3.01,3.83,3.14,3.89,4,3.91,3.75,3.82,3.73,2775,11.5625,60837.8995,283.459229,1009.704224,-170.053574,1.04877289218262,2.20816381627766,2.25269762915441,24.430897,797.546753,176.161469,130.017853,1192.824463,23.894949,"CRUZEXT"
132,16,53,57.93,4301.04,0.681307,0.000432,0.711731,-0.171054,-0.95602,0.23748,0.01264,4297.88,0.289373,-0.032942,0.627943,-0.72171,-0.43529,0.87406,-0.23172,2.19,2.64,2.74,2.77,3.17,3.02,3.01,3.83,3.14,3.89,4,3.91,3.75,3.82,3.73,2783,11.595833,60837.932833,283.459229,1009.704224,-170.053574,1.04940850842523,2.20715516340435,2.25424387204039,24.938683,797.121338,176.154175,129.586319,1193.292114,25.026211,"CRUZEXT"
133,16,53,57.95,4301.06,0.681369,-7.6e-05,0.711639,-0.171192,-0.95778,0.24381,0.01317,4297.9,0.278847,-0.030477,0.62831,-0.725633,-0.39403,0.86637,-0.22852,2.19,2.64,2.74,2.77,3.17,3.02,3.01,3.83,3.14,3.89,4,3.91,3.75,3.82,3.73,2788,11.616667,60837.953667,283.459229,1009.704224,-170.053574,1.05009319870146,2.20672433053832,2.25526785604716,25.085314,797.156372,176.249878,129.408005,1193.616943,25.731169,"CRUZEXT"
134,16,53,57.958,4301.08,0.681403,-0.00067,0.711521,-0.171544,-0.95333,0.2354,0.01128,4297.92,0.26888,-0.028368,0.628791,-0.729055,-0.37878,0.8431,-0.22595,2.19,2.64,2.73,2.77,3.17,3.02,3.01,3.83,3.14,3.89,4,3.91,3.75,3.82,3.73,2790,11.625,60837.962,283.459229,1009.704224,-170.053574,1.05040305831043,2.20662639563582,2.25563629399461,25.147272,797.178162,176.266098,129.371368,1193.735718,25.972052,"CRUZEXT"
135,16,53,58.012,4301.1,0.681394,-0.001233,0.711455,-0.17185,-0.95628,0.23736,0.0127,4297.94,0.258821,-0.026653,0.628903,-0.732654,-0.33817,0.84351,-0.21404,2.19,2.64,2.74,2.77,3.17,3.02,3.01,3.83,3.14,3.89,4,3.91,3.75,3.82,3.73,2802,11.675,60838.012,283.459229,1009.704224,-170.053574,1.05244670043079,2.20632437336054,2.25772729791447,25.052492,797.754517,176.465057,129.255661,1194.457764,27.325359,"CRUZEXT"
136,16,53,58.017,4301.12,0.681375,-0.001713,0.711418,-0.172073,-0.95977,0.23493,0.01153,4297.96,0.24876,-0.025213,0.628637,-0.736409,-0.31625,0.87327,-0.20056,2.19,2.64,2.74,2.77,3.17,3.02,3.01,3.83,3.14,3.89,4,3.91,3.75,3.82,3.73,2804,11.683333,60838.020333,283.459229,1009.704224,-170.053574,1.05280328134593,2.20628776000159,2.25807584639958,25.072134,797.770386,176.438019,129.269379,1194.547729,27.515186,"CRUZEXT"
137,16,53,58.035,4301.14,0.68134,-0.002035,0.711422,-0.172192,-0.9582,0.2232,0.0128,4297.98,0.23863,-0.024211,0.628307,-0.740068,-0.3211,0.89861,-0.20344,2.19,2.64,2.74,2.77,3.17,3.02,3.01,3.83,3.14,3.89,4,3.91,3.75,3.82,3.73,2808,11.7,60838.037,283.459229,1009.704224,-170.053574,1.05353448929341,2.20619026697606,2.25881184133468,25.107412,797.81012,176.396286,129.311417,1194.710327,27.892408,"CRUZEXT"
138,16,53,58.04,4301.16,0.681295,-0.001772,0.711482,-0.172129,-0.95956,0.22941,0.00589,4298,0.228469,-0.02317,0.628046,-0.743521,-0.32326,0.90953,-0.22131,2.19,2.64,2.74,2.77,3.17,3.02,3.01,3.83,3.14,3.89,4,3.91,3.75,3.82,3.73,2809,11.704167,60838.041167,283.459229,1009.704224,-170.053574,1.05369530204168,2.20616091518526,2.25898130480591,25.122383,797.818665,176.391953,129.320587,1194.744263,27.977413,"CRUZEXT"
139,16,53,58.092,4301.18,0.681321,-0.001928,0.711495,-0.171968,-0.95537,0.23465,0.01046,4298.02,0.21855,-0.021588,0.627719,-0.746819,-0.30474,0.91302,-0.2435,2.19,2.64,2.74,2.77,3.17,3.02,3.01,3.83,3.14,3.89,4,3.91,3.75,3.82,3.73,2822,11.758333,60838.095333,283.459229,1009.704224,-170.053574,1.05595970534412,2.20591111856692,2.26120438354616,25.258032,797.967651,176.333069,129.433136,1195.285889,29.161016,"CRUZEXT"
140,16,53,58.097,4301.2,0.681384,-0.002086,0.711469,-0.171824,-0.95391,0.23678,0.00494,4298.04,0.20891,-0.020204,0.627835,-0.749515,-0.31036,0.91256,-0.25014,2.19,2.64,2.74,2.77,3.17,3.02,3.01,3.84,3.14,3.89,4,3.92,3.75,3.82,3.73,2823,11.7625,60838.0995,283.459229,1009.704224,-170.053574,1.05613482126716,2.20593614308077,2.26133287079342,25.267042,797.979187,176.330276,129.444824,1195.335571,29.238575,"CRUZEXT"
141,16,53,58.115,4301.22,0.681454,-0.002131,0.711476,-0.171514,-0.95595,0.23828,0.0076,4298.06,0.199667,-0.018396,0.62784,-0.752072,-0.28123,0.90717,-0.24864,2.19,2.64,2.74,2.77,3.17,3.02,3.01,3.83,3.14,3.89,4,3.92,3.75,3.82,3.73,2827,11.779167,60838.116167,283.459229,1009.704224,-170.053574,1.05679771543937,2.20603948841616,2.26181052234758,25.322598,798.024292,176.320511,129.48938,1195.525757,29.530079,"CRUZEXT"
142,16,53,58.12,4301.24,0.681506,-0.001777,0.711534,-0.171072,-0.95543,0.24742,0.01008,4298.08,0.190783,-0.016862,0.627247,-0.754903,-0.26882,0.91877,-0.23907,2.19,2.64,2.74,2.77,3.17,3.02,3.01,3.84,3.14,3.89,3.99,3.92,3.75,3.82,3.73,2828,11.783333,60838.120333,283.459229,1009.704224,-170.053574,1.05698838816724,2.20603597461223,2.26198013427789,25.335747,798.040955,176.317444,129.512131,1195.560181,29.60894,"CRUZEXT"
143,16,53,58.172,4301.26,0.681657,-0.001792,0.711457,-0.170788,-0.95637,0.24405,0.01099,4298.1,0.182106,-0.015394,0.626066,-0.758051,-0.2561,0.92181,-0.22855,2.19,2.64,2.74,2.77,3.17,3.02,3.01,3.83,3.15,3.89,3.99,3.92,3.75,3.82,3.73,2841,11.8375,60838.1745,283.459229,1009.704224,-170.053574,1.05861392762311,2.20590985686034,2.26351758142231,25.584173,798.198364,176.340912,129.544174,1196.026611,30.516068,"CRUZEXT"
144,16,53,58.177,4301.28,0.681836,-0.001867,0.711308,-0.170697,-0.95459,0.24109,0.01188,4298.12,0.173683,-0.013639,0.625337,-0.760659,-0.23563,0.93152,-0.21586,2.19,2.64,2.74,2.77,3.17,3.02,3.01,3.83,3.15,3.89,3.99,3.92,3.76,3.82,3.73,2842,11.841667,60838.178667,283.459229,1009.704224,-170.053574,1.05878583885467,2.20594864762169,2.26362930355046,25.606649,798.213684,176.350235,129.561737,1196.072144,30.581528,"CRUZEXT"
145,16,53,58.195,4301.3,0.68197,-0.001978,0.711161,-0.170771,-0.95602,0.24133,0.01135,4298.14,0.165252,-0.01209,0.624682,-0.763097,-0.23195,0.91017,-0.22198,2.19,2.64,2.74,2.77,3.17,3.02,3.01,3.83,3.15,3.89,3.99,3.92,3.76,3.82,3.73,2846,11.858333,60838.195333,283.459229,1009.704224,-170.053574,1.05927826524494,2.20609616955733,2.26391373816405,25.701492,798.278564,176.359802,129.589218,1196.239624,30.790432,"CRUZEXT"
146,16,53,58.2,4301.32,0.682138,-0.002161,0.710974,-0.170881,-0.95551,0.24109,0.01275,4298.16,0.157062,-0.010443,0.624626,-0.764895,-0.21038,0.9085,-0.23141,2.19,2.64,2.74,2.77,3.17,3.02,3.01,3.83,3.15,3.89,3.99,3.93,3.76,3.81,3.73,2848,11.866667,60838.203667,283.459229,1009.704224,-170.053574,1.05951720846061,2.20615214009471,2.26406681974169,25.755926,798.304504,176.370071,129.602585,1196.317017,30.895536,"CRUZEXT"
147,16,53,58.251,4301.34,0.682298,-0.00239,0.710775,-0.171061,-0.9536,0.2422,0.01205,4298.18,0.149244,-0.008955,0.625119,-0.766076,-0.20103,0.89753,-0.24268,2.19,2.64,2.74,2.77,3.17,3.02,3.01,3.83,3.15,3.89,3.99,3.93,3.76,3.81,3.73,2860,11.916667,60838.253667,283.459229,1009.704224,-170.053574,1.06122971670118,2.20661757555594,2.26509940266602,26.004347,798.46283,176.45546,129.804794,1196.76062,31.496243,"CRUZEXT"
148,16,53,58.255,4301.36,0.682448,-0.002611,0.71058,-0.171271,-0.95532,0.24327,0.00868,4298.2,0.142051,-0.006786,0.62557,-0.767097,-0.18598,0.90156,-0.24447,2.19,2.64,2.74,2.77,3.17,3.02,3.01,3.83,3.15,3.89,3.99,3.93,3.77,3.81,3.74,2861,11.920833,60838.257833,283.459229,1009.704224,-170.053574,1.06135919125134,2.20665567749928,2.26517449306853,26.030071,798.470337,176.467163,129.817352,1196.79834,31.544659,"CRUZEXT"
149,16,53,58.274,4301.38,0.682619,-0.002822,0.710383,-0.171405,-0.9582,0.23943,0.00821,4298.22,0.134814,-0.005596,0.626104,-0.767977,-0.16281,0.92754,-0.24254,2.2,2.64,2.74,2.77,3.17,3.02,3.01,3.83,3.15,3.89,3.99,3.94,3.77,3.81,3.74,2865,11.9375,60838.2745,283.459229,1009.704224,-170.053574,1.0618929954524,2.20679168765047,2.26550434028476,26.11508,798.516602,176.48938,129.89444,1196.917847,31.716148,"CRUZEXT"
150,16,53,58.279,4301.4,0.682794,-0.003006,0.710165,-0.171606,-0.95598,0.23934,0.00464,4298.24,0.127849,-0.004115,0.626699,-0.768691,-0.16054,0.93467,-0.2451,2.2,2.64,2.74,2.77,3.17,3.02,3.01,3.83,3.15,3.89,3.98,3.94,3.78,3.81,3.74,2867,11.945833,60838.282833,283.459229,1009.704224,-170.053574,1.06214818036941,2.20687155843171,2.26564746847923,26.156603,798.534607,176.493622,129.930649,1196.979614,31.795549,"CRUZEXT"
151,16,53,58.31,4301.42,0.682931,-0.003219,0.709985,-0.1718,-0.95319,0.23929,0.00678,4298.26,0.121246,-0.002616,0.627032,-0.769495,-0.15137,0.92878,-0.23608,2.2,2.64,2.74,2.77,3.17,3.02,3.01,3.83,3.14,3.89,3.98,3.95,3.78,3.81,3.75,2874,11.975,60838.312,283.459229,1009.704224,-170.053574,1.06298446751922,2.20720797986999,2.26604340469657,26.255585,798.645691,176.467789,130.03331,1197.220947,32.059586,"CRUZEXT"
152,16,53,58.333,4301.44,0.683072,-0.003464,0.709793,-0.172031,-0.95459,0.23748,0.00363,4298.28,0.114905,-0.001004,0.627458,-0.770125,-0.14566,0.93073,-0.24015,2.2,2.64,2.74,2.77,3.17,3.02,3.01,3.83,3.14,3.89,3.97,3.95,3.79,3.8,3.74,2880,12,60838.337,283.459229,1009.704224,-170.053574,1.06382640753769,2.20774020768684,2.26625305244885,26.325665,798.718872,176.401779,130.173721,1197.468384,32.23148,"CRUZEXT"
153,16,53,58.338,4301.46,0.683231,-0.003716,0.709583,-0.172261,-0.95647,0.23655,0.00157,4298.3,0.109064,0.000461,0.62797,-0.770557,-0.13377,0.92182,-0.24369,2.2,2.64,2.74,2.77,3.17,3.02,3.01,3.83,3.13,3.89,3.96,3.96,3.79,3.8,3.75,2881,12.004167,60838.341167,283.459229,1009.704224,-170.053574,1.06398349774896,2.2078217599362,2.26630931791743,26.337427,798.729309,176.389114,130.209564,1197.498291,32.255039,"CRUZEXT"
154,16,53,58.372,4301.48,0.68337,-0.003903,0.709395,-0.17248,-0.95667,0.23209,0.0052,4298.32,0.10279,0.002471,0.628708,-0.770814,-0.08616,0.92252,-0.23961,2.2,2.64,2.74,2.77,3.17,3.02,3.01,3.83,3.13,3.89,3.96,3.96,3.8,3.8,3.75,2889,12.0375,60838.3745,283.459229,1009.704224,-170.053574,1.06512118635462,2.20859234563586,2.26654089422452,26.431038,798.791687,176.258698,130.49408,1197.730225,32.350365,"CRUZEXT"
155,16,53,58.377,4301.5,0.683471,-0.004104,0.709264,-0.172614,-0.95647,0.23239,0.00344,4298.34,0.09726,0.004043,0.629197,-0.771126,-0.10491,0.94024,-0.22213,2.2,2.64,2.74,2.77,3.17,3.02,3.01,3.83,3.13,3.9,3.95,3.97,3.8,3.8,3.75,2890,12.041667,60838.378667,283.459229,1009.704224,-170.053574,1.06527341270166,2.20866871092828,2.26659774855485,26.436636,798.808105,176.245834,130.529953,1197.757202,32.37233,"CRUZEXT"
156,16,53,58.412,4301.52,0.683587,-0.004221,0.709116,-0.172761,-0.956,0.23056,0.00173,4298.36,0.091837,0.00556,0.629646,-0.771415,-0.09726,0.95571,-0.21816,2.2,2.64,2.74,2.77,3.17,3.02,3.01,3.83,3.13,3.89,3.96,3.97,3.81,3.8,3.75,2898,12.075,60838.412,283.459229,1009.704224,-170.053574,1.06661151309223,2.20952644069377,2.26691486771936,26.550741,798.9552,176.066162,130.896347,1197.979004,32.453773,"CRUZEXT"
157,16,53,58.419,4301.54,0.683703,-0.004356,0.708965,-0.172915,-0.95391,0.23462,0.00309,4298.38,0.086441,0.006921,0.63013,-0.771632,-0.08379,0.95546,-0.20844,2.2,2.64,2.74,2.77,3.17,3.02,3.01,3.83,3.12,3.9,3.96,3.98,3.82,3.8,3.75,2900,12.083333,60838.420333,283.459229,1009.704224,-170.053574,1.06697230573116,2.20978263646237,2.26697571120617,26.58383,798.988159,176.002838,130.998795,1198.040649,32.464962,"CRUZEXT"
158,16,53,58.47,4301.56,0.683767,-0.004408,0.708854,-0.173117,-0.95769,0.2373,0.00345,4298.4,0.081165,0.00799,0.630431,-0.771949,-0.07668,0.95576,-0.2045,2.2,2.64,2.74,2.77,3.17,3.02,3.01,3.83,3.12,3.9,3.96,3.98,3.82,3.8,3.75,2912,12.133333,60838.470333,283.459229,1009.704224,-170.053574,1.0691787987996,2.21140918482578,2.26728570289622,26.782093,799.241394,175.670959,131.705597,1198.33313,32.411709,"CRUZEXT"
159,16,53,58.475,4301.58,0.683918,-0.004385,0.708698,-0.17316,-0.96102,0.23771,0.00874,4298.42,0.075708,0.009011,0.630541,-0.772402,-0.07795,0.95959,-0.20604,2.2,2.64,2.74,2.77,3.17,3.02,3.01,3.83,3.12,3.9,3.96,3.99,3.83,3.79,3.75,2914,12.141667,60838.478667,283.459229,1009.704224,-170.053574,1.06952009606633,2.21164575595201,2.26734766556727,26.816694,799.286987,175.617889,131.816956,1198.371948,32.404137,"CRUZEXT"
160,16,53,58.492,4301.6,0.684079,-0.004288,0.70859,-0.172964,-0.95776,0.23336,0.00481,4298.44,0.07013,0.01014,0.630401,-0.773029,-0.07209,0.97573,-0.20708,2.2,2.64,2.74,2.77,3.17,3.02,3.01,3.83,3.12,3.9,3.97,3.99,3.84,3.79,3.75,2918,12.158333,60838.495333,283.459229,1009.704224,-170.053574,1.07021540888297,2.21212863479955,2.26747250418703,26.901014,799.380066,175.539978,132.035797,1198.461182,32.399078,"CRUZEXT"
161,16,53,58.498,4301.62,0.684284,-0.004116,0.708424,-0.172841,-0.95851,0.23446,0.00638,4298.46,0.064584,0.011308,0.630231,-0.773634,-0.06599,0.9834,-0.21132,2.2,2.64,2.74,2.77,3.17,3.02,3.01,3.83,3.12,3.9,3.97,4,3.84,3.79,3.75,2919,12.1625,60838.4995,283.459229,1009.704224,-170.053574,1.07036066029859,2.21225374231597,2.26747489165709,26.921749,799.403015,175.51683,132.081299,1198.486206,32.392574,"CRUZEXT"
162,16,53,58.53,4301.64,0.684505,-0.003937,0.708243,-0.172712,-0.9549,0.23943,0.00316,4298.48,0.059058,0.012257,0.629883,-0.774345,-0.05205,0.97219,-0.21324,2.2,2.64,2.74,2.77,3.17,3.02,3.01,3.83,3.12,3.9,3.99,4.01,3.85,3.79,3.75,2927,12.195833,60838.532833,283.459229,1009.704224,-170.053574,1.07193630514068,2.21323373539612,2.26786633364902,27.145233,799.59845,175.39061,132.584763,1198.64978,32.397209,"CRUZEXT"
163,16,53,58.554,4301.66,0.684668,-0.003746,0.708088,-0.172705,-0.95506,0.24505,0.00352,4298.5,0.053689,0.013361,0.629349,-0.775151,-0.05879,0.95799,-0.20975,2.2,2.64,2.74,2.77,3.17,3.02,3.01,3.83,3.12,3.91,3.99,4.01,3.86,3.79,3.75,2933,12.220833,60838.557833,283.459229,1009.704224,-170.053574,1.07329917788063,2.21400855110232,2.26827323587373,27.344891,799.746521,175.335754,133.00322,1198.793945,32.440525,"CRUZEXT"
164,16,53,58.559,4301.68,0.684919,-0.003544,0.707886,-0.172541,-0.95258,0.24438,0.00302,4298.52,0.048215,0.014357,0.628819,-0.775923,-0.04572,0.96136,-0.21214,2.2,2.64,2.74,2.77,3.17,3.02,3,3.83,3.12,3.91,4,4.01,3.87,3.79,3.75,2934,12.225,60838.562,283.459229,1009.704224,-170.053574,1.07350873883267,2.21413268544524,2.26833071502282,27.383017,799.763794,175.326233,133.061722,1198.824707,32.453823,"CRUZEXT"
165,16,53,58.59,4301.7,0.685145,-0.00335,0.707701,-0.172409,-0.95722,0.2437,0.00098,4298.54,0.042969,0.015297,0.628495,-0.776475,-0.032,0.96195,-0.21967,2.2,2.64,2.74,2.77,3.17,3.02,3,3.83,3.13,3.91,4.01,4.02,3.87,3.79,3.75,2941,12.254167,60838.591167,283.459229,1009.704224,-170.053574,1.07516450098051,2.21487442977628,2.26901593162618,27.608517,799.922363,175.310989,133.515427,1199.018433,32.626492,"CRUZEXT"
166,16,53,58.595,4301.72,0.685416,-0.003231,0.707462,-0.172314,-0.95653,0.24219,0.00269,4298.56,0.037673,0.016168,0.628328,-0.776868,-0.01983,0.95893,-0.21952,2.2,2.64,2.74,2.77,3.17,3.02,3,3.83,3.13,3.92,4.02,4.02,3.88,3.79,3.75,2942,12.258333,60838.595333,283.459229,1009.704224,-170.053574,1.07546105931389,2.21501869257246,2.26912715898769,27.641554,799.939209,175.311874,133.59671,1199.05603,32.654667,"CRUZEXT"
167,16,53,58.63,4301.74,0.685682,-0.003199,0.707205,-0.172308,-0.9552,0.24526,-0.00031,4298.58,0.032513,0.016865,0.628047,-0.777313,-0.01271,0.95253,-0.21964,2.2,2.64,2.74,2.77,3.17,3.02,2.99,3.83,3.14,3.92,4.02,4.02,3.88,3.79,3.75,2951,12.295833,60838.632833,283.459229,1009.704224,-170.053574,1.07791853823736,2.21609530641098,2.2701603967477,27.91987,800.15509,175.314316,134.260635,1199.350464,32.928833,"CRUZEXT"
168,16,53,58.65,4301.76,0.685921,-0.00317,0.706954,-0.172391,-0.95095,0.24252,-0.00317,4298.6,0.026696,0.017967,0.627831,-0.777684,0.00743,0.95394,-0.21769,2.2,2.64,2.74,2.77,3.17,3.02,2.99,3.83,3.16,3.93,4.03,4.03,3.89,3.79,3.76,2956,12.316667,60838.653667,283.459229,1009.704224,-170.053574,1.07927772163721,2.21668877597432,2.27073045297606,28.064489,800.262451,175.323547,134.625656,1199.516113,33.083668,"CRUZEXT"
169,16,53,58.658,4301.78,0.686192,-0.003237,0.706684,-0.172416,-0.95539,0.24163,-0.00436,4298.62,0.021763,0.018728,0.627756,-0.777881,-0.00643,0.96249,-0.22876,2.2,2.64,2.74,2.77,3.17,3.02,2.99,3.83,3.17,3.93,4.04,4.03,3.89,3.79,3.76,2958,12.325,60838.662,283.459229,1009.704224,-170.053574,1.07986278912358,2.2169104324067,2.27100808224632,28.114735,800.303345,175.327332,134.794479,1199.564087,33.142235,"CRUZEXT"
170,16,53,58.714,4301.8,0.686462,-0.003345,0.706397,-0.172517,-0.95656,0.23922,-0.0071,4298.64,0.016938,0.01931,0.627865,-0.777898,0.00321,0.95407,-0.23368,2.2,2.64,2.74,2.77,3.17,3.02,2.99,3.83,3.18,3.93,4.05,4.03,3.89,3.79,3.76,2971,12.379167,60838.716167,283.459229,1009.704224,-170.053574,1.08374057600667,2.2181908941747,2.27302113059512,28.46446,800.532959,175.30011,135.826111,1199.947998,33.693306,"CRUZEXT"
171,16,53,58.719,4301.82,0.686697,-0.003543,0.706129,-0.172677,-0.95323,0.2371,-0.00623,4298.66,0.012449,0.020201,0.62773,-0.778069,0.00806,0.96289,-0.23281,2.2,2.64,2.74,2.78,3.17,3.02,2.99,3.84,3.19,3.93,4.06,4.03,3.9,3.79,3.76,2972,12.383333,60838.720333,283.459229,1009.704224,-170.053574,1.08400999265897,2.21829640579786,2.27314412617845,28.492226,800.546631,175.294052,135.894257,1199.983521,33.732536,"CRUZEXT"
172,16,53,58.724,4301.84,0.686928,-0.003765,0.70587,-0.172813,-0.95335,0.23797,-0.00882,4298.68,0.008024,0.020855,0.627546,-0.778259,0.02494,0.96212,-0.22609,2.2,2.64,2.74,2.78,3.17,3.02,2.98,3.83,3.21,3.92,4.06,4.03,3.91,3.78,3.77,2973,12.3875,60838.7245,283.459229,1009.704224,-170.053574,1.08427117129918,2.21835818172391,2.27330279365958,28.520395,800.560059,175.288208,135.957367,1200.011597,33.784164,"CRUZEXT"
173,16,53,58.771,4301.86,0.687148,-0.00399,0.705617,-0.172964,-0.95564,0.23488,-0.00514,4298.7,0.00381,0.021556,0.627222,-0.778532,0.03765,0.96479,-0.2179,2.2,2.63,2.74,2.78,3.17,3.03,2.98,3.84,3.22,3.92,4.07,4.03,3.91,3.78,3.77,2985,12.4375,60838.7745,283.459229,1009.704224,-170.053574,1.08786850615592,2.21950653906725,2.27518898668665,28.832449,800.791931,175.155975,136.871323,1200.417725,34.363701,"CRUZEXT"
174,16,53,58.776,4301.88,0.687368,-0.004241,0.705359,-0.173137,-0.95569,0.23439,-0.00541,4298.72,-0.000426,0.021945,0.626859,-0.778824,0.04102,0.95063,-0.218,2.21,2.63,2.75,2.78,3.17,3.03,2.98,3.84,3.22,3.92,4.08,4.03,3.92,3.78,3.78,2986,12.441667,60838.778667,283.459229,1009.704224,-170.053574,1.08816217927855,2.21962303816465,2.27532003100076,28.853676,800.817871,175.144226,136.950623,1200.450684,34.399139,"CRUZEXT"
175,16,53,58.79,4301.9,0.687554,-0.004472,0.705148,-0.17325,-0.95436,0.23148,-0.0068,4298.74,-0.004565,0.022408,0.626592,-0.779012,0.04196,0.95166,-0.21645,2.21,2.63,2.75,2.78,3.17,3.03,2.98,3.84,3.23,3.91,4.08,4.03,3.93,3.78,3.77,2989,12.454167,60838.791167,283.459229,1009.704224,-170.053574,1.089049584802,2.2198552763,2.27583220879899,28.924313,800.865234,175.103683,137.180145,1200.533447,34.548412,"CRUZEXT"
176,16,53,58.812,4301.92,0.687765,-0.00466,0.704931,-0.173291,-0.95708,0.23258,-0.00518,4298.76,-0.008628,0.022687,0.626419,-0.779109,0.05329,0.94571,-0.21734,2.21,2.63,2.75,2.78,3.17,3.03,2.98,3.84,3.23,3.91,4.09,4.03,3.93,3.78,3.77,2994,12.475,60838.812,283.459229,1009.704224,-170.053574,1.09036410224608,2.22030148438082,2.27648931480063,29.033825,800.935059,175.051056,137.537155,1200.659912,34.721653,"CRUZEXT"
177,16,53,58.818,4301.94,0.68797,-0.004832,0.70472,-0.173331,-0.95592,0.23413,-0.00722,4298.78,-0.012403,0.022844,0.62641,-0.77906,0.06653,0.93372,-0.21819,2.21,2.63,2.75,2.78,3.17,3.03,2.98,3.84,3.24,3.91,4.09,4.03,3.93,3.78,3.77,2996,12.483333,60838.820333,283.459229,1009.704224,-170.053574,1.0908741976873,2.22049257092523,2.27672619669788,29.068682,800.969421,175.025406,137.679214,1200.708984,34.779678,"CRUZEXT"
178,16,53,58.867,4301.96,0.688144,-0.004963,0.704542,-0.173359,-0.95733,0.23493,-0.00722,4298.8,-0.0159,0.022926,0.626356,-0.779037,0.06609,0.93572,-0.22311,2.21,2.63,2.75,2.78,3.17,3.03,2.97,3.84,3.24,3.9,4.09,4.03,3.93,3.78,3.77,3008,12.533333,60838.870333,283.459229,1009.704224,-170.053574,1.09392658090955,2.22143394535873,2.27833375261572,29.273378,801.147034,174.940582,138.539597,1200.939209,35.158848,"CRUZEXT"
179,16,53,58.872,4301.98,0.688335,-0.005053,0.704363,-0.173327,-0.94952,0.23322,-0.01017,4298.82,-0.019341,0.022898,0.626538,-0.778814,0.06316,0.93415,-0.2326,2.21,2.63,2.75,2.78,3.17,3.03,2.97,3.84,3.25,3.9,4.09,4.03,3.94,3.77,3.77,3009,12.5375,60838.8745,283.459229,1009.704224,-170.053574,1.09414669605547,2.22151363937896,2.27843768446092,29.288206,801.152649,174.940994,138.600143,1200.960815,35.185486,"CRUZEXT"
180,16,53,58.89,4302,0.688514,-0.005118,0.70419,-0.173319,-0.95396,0.23516,-0.01088,4298.84,-0.022534,0.023091,0.626716,-0.77858,0.06365,0.94163,-0.21927,2.21,2.63,2.75,2.78,3.17,3.04,2.97,3.84,3.25,3.89,4.1,4.02,3.94,3.77,3.77,3013,12.554167,60838.891167,283.459229,1009.704224,-170.053574,1.0950439568048,2.22181243278209,2.27888611935375,29.336411,801.218506,174.926529,138.867401,1201.015381,35.271069,"CRUZEXT"
181,16,53,58.895,4302.02,0.688705,-0.005234,0.703996,-0.173345,-0.9567,0.23629,-0.01512,4298.86,-0.025353,0.02302,0.626549,-0.778629,0.07739,0.96066,-0.21549,2.21,2.62,2.75,2.78,3.17,3.04,2.96,3.84,3.26,3.89,4.1,4.02,3.94,3.76,3.77,3014,12.558333,60838.895333,283.459229,1009.704224,-170.053574,1.095276651922,2.22189979056626,2.27899261421467,29.348438,801.23291,174.925018,138.938675,1201.029419,35.288128,"CRUZEXT"
182,16,53,58.949,4302.04,0.688878,-0.005362,0.703813,-0.173395,-0.95649,0.23622,-0.01435,4298.88,-0.02808,0.022867,0.626108,-0.778895,0.07879,0.94282,-0.22773,2.21,2.62,2.75,2.78,3.17,3.04,2.96,3.84,3.26,3.89,4.1,4.02,3.94,3.76,3.78,3027,12.6125,60838.9495,283.459229,1009.704224,-170.053574,1.09809252782765,2.22289231263741,2.28033871463473,29.489395,801.392761,174.89798,139.81105,1201.169922,35.494087,"CRUZEXT"
183,16,53,58.954,4302.06,0.689064,-0.005391,0.703607,-0.173491,-0.95553,0.23915,-0.01458,4298.9,-0.030565,0.02278,0.625896,-0.778974,0.07962,0.93246,-0.23197,2.21,2.62,2.75,2.78,3.17,3.04,2.96,3.84,3.27,3.88,4.1,4.01,3.95,3.75,3.78,3029,12.620833,60838.957833,283.459229,1009.704224,-170.053574,1.09849571224018,2.22293678982529,2.28062587493807,29.502264,801.415344,174.896698,139.937347,1201.163696,35.544151,"CRUZEXT"
184,16,53,58.974,4302.08,0.689246,-0.00546,0.703433,-0.173469,-0.9567,0.2379,-0.01432,4298.92,-0.032822,0.022697,0.625653,-0.77908,0.08676,0.94135,-0.21971,2.21,2.62,2.76,2.79,3.17,3.04,2.95,3.84,3.27,3.88,4.11,4,3.95,3.75,3.77,3033,12.6375,60838.9745,283.459229,1009.704224,-170.053574,1.09925803067592,2.22304797858934,2.28114178748486,29.541344,801.451111,174.89296,140.16922,1201.167969,35.642212,"CRUZEXT"
185,16,53,58.979,4302.1,0.68944,-0.00554,0.703248,-0.17345,-0.95592,0.23383,-0.01646,4298.94,-0.034881,0.022498,0.625223,-0.779342,0.08259,0.95159,-0.21889,2.21,2.61,2.76,2.79,3.17,3.04,2.95,3.84,3.27,3.88,4.11,4,3.95,3.75,3.77,3035,12.645833,60838.982833,283.459229,1009.704224,-170.053574,1.09962827989947,2.22305006717321,2.28144273063699,29.56024,801.463318,174.887833,140.268372,1201.175049,35.721218,"CRUZEXT"
186,16,53,59.031,4302.12,0.689617,-0.00563,0.703064,-0.173486,-0.9536,0.23436,-0.01372,4298.96,-0.036522,0.022351,0.624997,-0.779452,0.07336,0.95126,-0.23422,2.21,2.61,2.77,2.8,3.17,3.04,2.94,3.84,3.28,3.88,4.11,3.99,3.95,3.74,3.77,3047,12.695833,60839.032833,283.459229,1009.704224,-170.053574,1.10141539616279,2.22297886374848,2.28297191282199,29.678726,801.554138,174.921906,140.692383,1201.262573,36.20005,"CRUZEXT"
187,16,53,59.036,4302.14,0.689778,-0.005708,0.702898,-0.173518,-0.95455,0.23549,-0.01315,4298.98,-0.037449,0.022031,0.625239,-0.779223,0.07284,0.93961,-0.25331,2.22,2.61,2.78,2.81,3.17,3.04,2.94,3.84,3.28,3.88,4.11,3.99,3.95,3.74,3.77,3048,12.7,60839.037,283.459229,1009.704224,-170.053574,1.10152234801337,2.22292329835777,2.28311331239193,29.692261,801.555725,174.930313,140.715286,1201.258301,36.24424,"CRUZEXT"
188,16,53,59.052,4302.16,0.689913,-0.005764,0.702761,-0.173532,-0.9521,0.23357,-0.01351,4299,-0.037502,0.02192,0.624917,-0.779482,0.08241,0.91898,-0.25544,2.22,2.61,2.78,2.81,3.17,3.05,2.93,3.84,3.28,3.88,4.11,3.98,3.96,3.74,3.77,3052,12.716667,60839.053667,283.459229,1009.704224,-170.053574,1.1019365632525,2.22282737511235,2.28354446247694,29.717701,801.565247,174.968765,140.795715,1201.282837,36.399593,"CRUZEXT"
189,16,53,59.073,4302.18,0.690094,-0.005793,0.702597,-0.173476,-0.95462,0.23628,-0.01151,4299.02,-0.037312,0.021925,0.625134,-0.779317,0.08838,0.92489,-0.23689,2.22,2.61,2.79,2.82,3.17,3.05,2.93,3.84,3.28,3.88,4.11,3.98,3.96,3.74,3.77,3057,12.7375,60839.0745,283.459229,1009.704224,-170.053574,1.10234665523567,2.22262565353133,2.28407511199411,29.752779,801.544128,175.036972,140.867371,1201.291138,36.589874,"CRUZEXT"
190,16,53,59.078,4302.2,0.690281,-0.005855,0.702419,-0.173454,-0.95792,0.23678,-0.01453,4299.04,-0.036686,0.021904,0.62565,-0.778933,0.09089,0.93133,-0.23253,2.22,2.61,2.79,2.83,3.17,3.05,2.92,3.83,3.29,3.88,4.11,3.97,3.96,3.73,3.77,3058,12.741667,60839.078667,283.459229,1009.704224,-170.053574,1.10239824264091,2.22259953555328,2.28414256693383,29.754152,801.536743,175.053864,140.874939,1201.293945,36.616085,"CRUZEXT"
191,16,53,59.131,4302.22,0.690389,-0.005993,0.7023,-0.173503,-0.95801,0.23544,-0.0181,4299.06,-0.035422,0.021629,0.626327,-0.778455,0.08864,0.90848,-0.24533,2.22,2.62,2.8,2.84,3.17,3.05,2.92,3.83,3.29,3.88,4.11,3.96,3.96,3.73,3.77,3071,12.795833,60839.132833,283.459229,1009.704224,-170.053574,1.10324453014175,2.22249971815346,2.2849282946871,29.712605,801.442566,175.268021,141.128967,1201.248047,36.781174,"CRUZEXT"
192,16,53,59.136,4302.24,0.69042,-0.006182,0.702226,-0.173671,-0.94795,0.23328,-0.01765,4299.08,-0.03363,0.021128,0.62736,-0.777716,0.10578,0.8874,-0.2402,2.22,2.61,2.8,2.85,3.17,3.05,2.92,3.83,3.29,3.89,4.11,3.96,3.96,3.73,3.77,3072,12.8,60839.137,283.459229,1009.704224,-170.053574,1.10331579358526,2.22250898339348,2.28497719407124,29.7045,801.436951,175.28566,141.157043,1201.239624,36.781235,"CRUZEXT"
193,16,53,59.153,4302.26,0.690453,-0.006424,0.702124,-0.173942,-0.95122,0.23406,-0.01878,4299.1,-0.031298,0.020613,0.628563,-0.776855,0.10491,0.89845,-0.23448,2.23,2.61,2.8,2.86,3.17,3.05,2.9,3.83,3.29,3.89,4.11,3.96,3.97,3.73,3.77,3076,12.816667,60839.153667,283.459229,1009.704224,-170.053574,1.10357091010646,2.22252561533892,2.28516830510398,29.658482,801.389404,175.330673,141.269592,1201.189087,36.767738,"CRUZEXT"
194,16,53,59.171,4302.28,0.690427,-0.006711,0.702094,-0.174152,-0.95468,0.23394,-0.02267,4299.12,-0.028482,0.019938,0.62964,-0.776108,0.08648,0.91811,-0.22804,2.24,2.61,2.81,2.87,3.17,3.05,2.9,3.83,3.29,3.89,4.11,3.96,3.97,3.73,3.77,3081,12.8375,60839.1745,283.459229,1009.704224,-170.053574,1.10386369217996,2.22257811971308,2.28535496601306,29.588217,801.345886,175.351837,141.413986,1201.118896,36.722195,"CRUZEXT"
195,16,53,59.176,4302.3,0.690385,-0.006995,0.702077,-0.174378,-0.95572,0.23145,-0.01862,4299.14,-0.025068,0.019182,0.630416,-0.775616,0.06921,0.92913,-0.2322,2.25,2.61,2.81,2.88,3.17,3.05,2.9,3.83,3.29,3.89,4.12,3.96,3.97,3.72,3.77,3082,12.841667,60839.178667,283.459229,1009.704224,-170.053574,1.10391049575761,2.22260429256557,2.285367472517,29.573606,801.331543,175.353516,141.444092,1201.102661,36.700546,"CRUZEXT"
196,16,53,59.228,4302.32,0.690269,-0.00729,0.702112,-0.174686,-0.95633,0.22996,-0.02072,4299.16,-0.02085,0.018738,0.630907,-0.775352,0.06609,0.93515,-0.23092,2.25,2.61,2.81,2.89,3.17,3.05,2.9,3.83,3.3,3.89,4.12,3.96,3.97,3.72,3.77,3094,12.891667,60839.228667,283.459229,1009.704224,-170.053574,1.10371834001976,2.22256890738207,2.28524589200293,29.369358,801.14917,175.30365,141.529526,1200.905762,36.468479,"CRUZEXT"
197,16,53,59.234,4302.34,0.69014,-0.007592,0.702152,-0.175017,-0.95654,0.22742,-0.01667,4299.18,-0.016057,0.018237,0.631384,-0.775089,0.05887,0.93216,-0.23331,2.25,2.6,2.81,2.9,3.17,3.05,2.89,3.83,3.3,3.88,4.12,3.95,3.98,3.72,3.76,3096,12.9,60839.237,283.459229,1009.704224,-170.053574,1.10350356030667,2.22258101560504,2.28505960511499,29.332645,801.118103,175.287109,141.482666,1200.890503,36.404362,"CRUZEXT"
198,16,53,59.251,4302.36,0.690044,-0.00785,0.70219,-0.175235,-0.95597,0.22564,-0.01582,4299.2,-0.010583,0.017474,0.631584,-0.775038,0.05047,0.93951,-0.25345,2.26,2.6,2.8,2.91,3.17,3.04,2.89,3.83,3.3,3.88,4.12,3.95,3.97,3.72,3.76,3100,12.916667,60839.253667,283.459229,1009.704224,-170.053574,1.10308199437772,2.2225683871258,2.28472923871782,29.26099,801.053223,175.263397,141.39473,1200.846069,36.281128,"CRUZEXT"
199,16,53,59.256,4302.38,0.689938,-0.007974,0.702246,-0.175421,-0.95558,0.2277,-0.01536,4299.22,-0.003831,0.016753,0.631485,-0.775198,0.02112,0.93363,-0.26522,2.26,2.6,2.8,2.92,3.17,3.04,2.89,3.83,3.3,3.88,4.12,3.95,3.98,3.72,3.76,3101,12.920833,60839.257833,283.459229,1009.704224,-170.053574,1.102990157291,2.22259958255268,2.28462415694335,29.24839,801.037048,175.254898,141.383057,1200.834839,36.235546,"CRUZEXT"
200,16,53,59.309,4302.4,0.689781,-0.00799,0.702385,-0.17548,-0.95367,0.22968,-0.01167,4299.24,0.003674,0.016263,0.631808,-0.774945,0.01899,0.88264,-0.24435,2.26,2.6,2.8,2.92,3.16,3.04,2.88,3.83,3.3,3.88,4.12,3.95,3.98,3.71,3.76,3114,12.975,60839.312,283.459229,1009.704224,-170.053574,1.10150419555383,2.22263046845805,2.28338401102442,28.89653,800.789307,175.181702,141.316818,1200.371094,35.431919,"CRUZEXT"
201,16,53,59.314,4302.42,0.689675,-0.007987,0.702474,-0.17554,-0.95564,0.2331,-0.01273,4299.26,0.011412,0.016295,0.632161,-0.774582,0.03957,0.93087,-0.21415,2.26,2.61,2.8,2.93,3.16,3.04,2.88,3.83,3.3,3.88,4.12,3.95,3.98,3.71,3.76,3115,12.979167,60839.316167,283.459229,1009.704224,-170.053574,1.10140368902233,2.22266314603224,2.28327019884582,28.863134,800.765076,175.175522,141.324951,1200.330566,35.352383,"CRUZEXT"
202,16,53,59.333,4302.44,0.689487,-0.00794,0.702656,-0.175554,-0.95907,0.23547,-0.01848,4299.28,0.018814,0.016287,0.633726,-0.773158,-0.00289,0.959,-0.20274,2.26,2.61,2.79,2.94,3.15,3.04,2.88,3.82,3.3,3.88,4.12,3.95,3.98,3.71,3.76,3120,13,60839.337,283.459229,1009.704224,-170.053574,1.10095905165242,2.22276725813882,2.28280594579521,28.688692,800.674805,175.151382,141.376251,1200.12085,34.988144,"CRUZEXT"
203,16,53,59.35,4302.46,0.689237,-0.007804,0.702915,-0.175507,-0.95602,0.23003,-0.01533,4299.3,0.025968,0.016153,0.636219,-0.770902,-0.00342,0.9583,-0.21176,2.26,2.61,2.79,2.95,3.15,3.03,2.87,3.82,3.3,3.88,4.12,3.95,3.98,3.71,3.76,3124,13.016667,60839.353667,283.459229,1009.704224,-170.053574,1.10073226850399,2.22295340284836,2.28243929102511,28.556835,800.617004,175.114441,141.484833,1199.936768,34.652966,"CRUZEXT"
204,16,53,59.355,4302.48,0.688937,-0.007739,0.703168,-0.175672,-0.95354,0.23368,-0.02096,4299.32,0.033027,0.016254,0.638733,-0.768548,-0.00099,0.96995,-0.19784,2.25,2.62,2.78,2.95,3.14,3.03,2.87,3.82,3.3,3.88,4.12,3.95,3.98,3.71,3.76,3125,13.020833,60839.357833,283.459229,1009.704224,-170.053574,1.10070424091847,2.22301606461545,2.28235529021495,28.518227,800.607849,175.096085,141.516983,1199.898804,34.575386,"CRUZEXT"
205,16,53,59.409,4302.5,0.68866,-0.007655,0.703374,-0.175935,-0.95543,0.23608,-0.01583,4299.34,0.040149,0.016404,0.640393,-0.766822,-0.00481,0.98563,-0.18107,2.25,2.62,2.78,2.96,3.13,3.03,2.87,3.82,3.3,3.88,4.12,3.94,3.98,3.71,3.76,3138,13.075,60839.412,283.459229,1009.704224,-170.053574,1.10033533395784,2.22364366214292,2.28144161819104,28.112898,800.514038,174.841476,141.932983,1199.359497,33.611519,"CRUZEXT"
206,16,53,59.417,4302.52,0.688429,-0.00751,0.703574,-0.176049,-0.9579,0.23481,-0.01423,4299.36,0.04743,0.01616,0.641342,-0.765617,-0.03488,0.99151,-0.19189,2.25,2.62,2.77,2.97,3.13,3.02,2.86,3.81,3.3,3.88,4.12,3.95,3.98,3.71,3.76,3140,13.083333,60839.420333,283.459229,1009.704224,-170.053574,1.1003420648704,2.2237366088509,2.28135640380238,28.073118,800.48938,174.793045,142.016449,1199.273193,33.473946,"CRUZEXT"
207,16,53,59.429,4302.54,0.688325,-0.007208,0.703687,-0.176015,-0.95925,0.23258,-0.00842,4299.38,0.054664,0.016106,0.641923,-0.764649,-0.04468,0.98371,-0.19322,2.25,2.63,2.76,2.98,3.12,3.02,2.86,3.81,3.3,3.88,4.12,3.94,3.98,3.71,3.76,3143,13.095833,60839.432833,283.459229,1009.704224,-170.053574,1.10028870040218,2.22384583741122,2.28120617442309,28.017529,800.463562,174.733017,142.12973,1199.12854,33.254101,"CRUZEXT"
208,16,53,59.454,4302.56,0.688199,-0.006793,0.703866,-0.175808,-0.95757,0.23392,-0.00528,4299.4,0.061802,0.016357,0.642176,-0.763887,-0.05479,0.99027,-0.18256,2.24,2.63,2.75,2.99,3.12,3.02,2.86,3.81,3.3,3.87,4.11,3.94,3.98,3.71,3.76,3149,13.120833,60839.457833,283.459229,1009.704224,-170.053574,1.10016191911426,2.22412251640429,2.28083242669744,27.954182,800.406494,174.645096,142.323547,1198.890015,32.836491,"CRUZEXT"
209,16,53,59.459,4302.58,0.68816,-0.006352,0.70397,-0.175561,-0.95654,0.23614,-0.00483,4299.42,0.068737,0.01686,0.642209,-0.763255,-0.07544,1.00328,-0.17215,2.24,2.63,2.74,3.01,3.12,3.01,2.86,3.81,3.3,3.87,4.12,3.94,3.98,3.71,3.76,3150,13.125,60839.462,283.459229,1009.704224,-170.053574,1.1001795732126,2.22417653290205,2.2807941181134,27.952763,800.398743,174.628311,142.362442,1198.857788,32.778576,"CRUZEXT"
210,16,53,59.509,4302.6,0.688076,-0.005874,0.70413,-0.175265,-0.95457,0.23694,-0.00368,4299.44,0.075629,0.017254,0.642425,-0.762413,-0.08829,1.00359,-0.18159,2.24,2.64,2.72,3.02,3.12,3.01,2.85,3.81,3.3,3.88,4.12,3.94,3.98,3.71,3.76,3162,13.175,60839.512,283.459229,1009.704224,-170.053574,1.10017152548284,2.22448378579242,2.28048748965268,27.972002,800.335205,174.504883,142.691605,1198.489258,32.229992,"CRUZEXT"
211,16,53,59.517,4302.62,0.688042,-0.005464,0.704222,-0.175039,-0.9553,0.24072,-0.00169,4299.46,0.082696,0.017602,0.642743,-0.761402,-0.09823,0.9722,-0.18032,2.24,2.64,2.7,3.04,3.12,3,2.85,3.81,3.3,3.87,4.11,3.94,3.98,3.7,3.76,3164,13.183333,60839.520333,283.459229,1009.704224,-170.053574,1.10014160727251,2.22447556221817,2.28047105824809,27.985575,800.327393,174.509125,142.717499,1198.441406,32.177021,"CRUZEXT"
212,16,53,59.53,4302.64,0.688017,-0.005107,0.704293,-0.174865,-0.95506,0.24456,5e-05,4299.48,0.089995,0.017997,0.643032,-0.76032,-0.09609,0.95602,-0.16858,2.24,2.64,2.68,3.05,3.12,3,2.85,3.81,3.31,3.87,4.12,3.94,3.98,3.7,3.76,3167,13.195833,60839.532833,283.459229,1009.704224,-170.053574,1.10012099640517,2.22450405222824,2.28042637858006,28.007797,800.321472,174.517059,142.763092,1198.379639,32.092804,"CRUZEXT"
213,16,53,59.535,4302.66,0.68791,-0.004676,0.704422,-0.17478,-0.95581,0.24536,-0.00361,4299.5,0.097564,0.018132,0.64323,-0.759215,-0.10024,0.95072,-0.16218,2.25,2.65,2.65,3.07,3.12,3,2.85,3.8,3.3,3.87,4.11,3.94,3.98,3.7,3.76,3168,13.2,60839.537,283.459229,1009.704224,-170.053574,1.1001300505332,2.22452674456408,2.28041161836065,28.023474,800.314575,174.52272,142.783417,1198.361328,32.063725,"CRUZEXT"
214,16,53,59.591,4302.68,0.687809,-0.004361,0.704566,-0.174607,-0.95719,0.24219,-0.00328,4299.52,0.105145,0.017843,0.643031,-0.758378,-0.11234,0.92578,-0.16469,2.25,2.65,2.62,3.08,3.12,2.99,2.85,3.8,3.3,3.87,4.12,3.94,3.98,3.7,3.76,3181,13.254167,60839.591167,283.459229,1009.704224,-170.053574,1.09958660163302,2.22429662347996,2.28019179830663,28.148125,800.222168,174.722076,142.842163,1198.02478,31.712133,"CRUZEXT"
215,16,53,59.596,4302.7,0.687568,-0.00408,0.704804,-0.174598,-0.95464,0.2454,-0.00588,4299.54,0.113298,0.017313,0.642308,-0.757829,-0.13733,0.9333,-0.15883,2.25,2.65,2.59,3.1,3.12,2.99,2.84,3.8,3.31,3.86,4.12,3.94,3.98,3.7,3.76,3183,13.2625,60839.5995,283.459229,1009.704224,-170.053574,1.09950270200686,2.22425322884958,2.28016551060373,28.15284,800.197876,174.775742,142.865738,1197.951538,31.638916,"CRUZEXT"
216,16,53,59.61,4302.72,0.687428,-0.00397,0.704933,-0.174632,-0.95374,0.24705,-0.00776,4299.56,0.121822,0.016339,0.641653,-0.757083,-0.11773,0.9375,-0.16378,2.24,2.66,2.54,3.11,3.11,2.99,2.84,3.8,3.31,3.86,4.11,3.94,3.98,3.7,3.76,3186,13.275,60839.612,283.459229,1009.704224,-170.053574,1.09932679039825,2.22415484475767,2.28011758828045,28.152905,800.154358,174.848984,142.897003,1197.820557,31.513229,"CRUZEXT"
217,16,53,59.63,4302.74,0.687256,-0.004017,0.705064,-0.174779,-0.95318,0.24344,-0.00673,4299.58,0.129715,0.015171,0.640922,-0.756415,-0.09755,0.94102,-0.16399,2.24,2.66,2.51,3.12,3.1,2.99,2.84,3.8,3.31,3.86,4.12,3.95,3.98,3.7,3.75,3191,13.295833,60839.632833,283.459229,1009.704224,-170.053574,1.09907935112375,2.22406882679685,2.27999896413511,28.13183,800.083679,175.015762,143.025085,1197.536865,31.204052,"CRUZEXT"
218,16,53,59.636,4302.76,0.687061,-0.004245,0.705163,-0.175141,-0.95206,0.24222,-0.00994,4299.6,0.136913,0.01436,0.640095,-0.755862,-0.12205,0.98692,-0.16164,2.24,2.66,2.49,3.13,3.09,2.98,2.84,3.8,3.3,3.86,4.12,3.94,3.98,3.7,3.75,3192,13.3,60839.637,283.459229,1009.704224,-170.053574,1.09902768837641,2.22403592717351,2.27998877677329,28.12582,800.074646,175.04689,143.056946,1197.467163,31.135628,"CRUZEXT"
219,16,53,59.67,4302.78,0.686859,-0.004594,0.705254,-0.175556,-0.9519,0.24018,-0.01467,4299.62,0.143366,0.013325,0.639759,-0.754968,-0.16139,1.00178,-0.1743,2.24,2.66,2.47,3.13,3.08,2.98,2.84,3.8,3.31,3.85,4.12,3.94,3.98,3.71,3.75,3200,13.333333,60839.670333,283.459229,1009.704224,-170.053574,1.09872901774892,2.22397504444161,2.27980352363424,28.049734,799.98584,175.268112,143.293961,1197.025635,30.635159,"CRUZEXT"
220,16,53,59.693,4302.8,0.686641,-0.00505,0.705317,-0.176146,-0.95222,0.23994,-0.014,4299.64,0.149648,0.012442,0.64026,-0.753338,-0.18518,0.9906,-0.18973,2.24,2.66,2.45,3.14,3.08,2.98,2.84,3.79,3.31,3.85,4.12,3.95,3.99,3.71,3.75,3206,13.358333,60839.695333,283.459229,1009.704224,-170.053574,1.09848020839724,2.22399938013913,2.27957580390243,27.976673,799.941956,175.347046,143.370026,1196.838745,30.37533,"CRUZEXT"
221,16,53,59.7,4302.82,0.686435,-0.005575,0.705353,-0.176786,-0.95483,0.24337,-0.01165,4299.66,0.156401,0.011734,0.641306,-0.751084,-0.1902,0.97341,-0.19481,2.24,2.66,2.42,3.14,3.07,2.98,2.83,3.79,3.31,3.85,4.12,3.95,3.99,3.71,3.75,3208,13.366667,60839.703667,283.459229,1009.704224,-170.053574,1.09843565700309,2.22405155938577,2.27948831032636,27.947002,799.943909,175.346451,143.395508,1196.801147,30.300951,"CRUZEXT"
222,16,53,59.731,4302.84,0.686249,-0.006054,0.705387,-0.177352,-0.95738,0.23875,-0.01011,4299.68,0.16359,0.010912,0.642032,-0.748942,-0.19109,0.94955,-0.19453,2.23,2.66,2.41,3.15,3.06,2.97,2.83,3.79,3.31,3.85,4.12,3.95,3.99,3.71,3.75,3215,13.395833,60839.732833,283.459229,1009.704224,-170.053574,1.09817020067796,2.22420654576235,2.27911919344317,27.858015,799.922363,175.274857,143.44664,1196.673584,30.037609,"CRUZEXT"
223,16,53,59.737,4302.86,0.686142,-0.006414,0.705409,-0.17767,-0.95829,0.23471,-0.00506,4299.7,0.17092,0.010042,0.641955,-0.747382,-0.19348,0.95555,-0.19414,2.23,2.65,2.39,3.15,3.06,2.97,2.83,3.79,3.31,3.84,4.12,3.95,3.99,3.71,3.75,3216,13.4,60839.737,283.459229,1009.704224,-170.053574,1.09809931740597,2.2242149087913,2.2790528688694,27.856089,799.904175,175.261444,143.440735,1196.657593,30.002819,"CRUZEXT"
224,16,53,59.776,4302.88,0.686091,-0.006562,0.705428,-0.177788,-0.95726,0.23169,-0.00352,4299.72,0.178443,0.009212,0.641794,-0.745771,-0.22939,0.95923,-0.19854,2.23,2.65,2.38,3.16,3.05,2.97,2.83,3.79,3.31,3.84,4.12,3.95,3.99,3.72,3.76,3226,13.441667,60839.778667,283.459229,1009.704224,-170.053574,1.09693753060349,2.2244148997549,2.27790325290342,27.744862,799.795776,175.077515,143.262421,1196.520264,29.535278,"CRUZEXT"
225,16,53,59.784,4302.9,0.686041,-0.006893,0.70561,-0.177242,-0.96252,0.22576,-0.00283,4299.74,0.186671,0.008445,0.641604,-0.743927,-0.25194,0.93954,-0.2022,2.23,2.65,2.36,3.16,3.05,2.97,2.83,3.79,3.31,3.84,4.12,3.95,4,3.71,3.76,3228,13.45,60839.787,283.459229,1009.704224,-170.053574,1.09667034202444,2.22449612685855,2.27760413386459,27.715948,799.777649,175.034576,143.247238,1196.463013,29.38311,"CRUZEXT"
226,16,53,59.832,4302.92,0.68594,-0.006848,0.705704,-0.177261,-0.95344,0.2282,-0.00326,4299.76,0.195203,0.007702,0.640606,-0.742604,-0.22023,0.91765,-0.19732,2.23,2.65,2.35,3.17,3.04,2.97,2.83,3.79,3.31,3.83,4.12,3.95,4,3.72,3.76,3239,13.495833,60839.832833,283.459229,1009.704224,-170.053574,1.09477507675085,2.22473237013969,2.27581162035545,27.505331,799.653137,174.877487,143.19603,1195.901489,28.304628,"CRUZEXT"
227,16,53,59.837,4302.94,0.685797,-0.006801,0.705834,-0.177298,-0.95044,0.23547,-0.00073,4299.78,0.203148,0.00711,0.638974,-0.741884,-0.20984,0.93152,-0.17819,2.23,2.64,2.34,3.17,3.04,2.97,2.83,3.78,3.31,3.83,4.12,3.95,4,3.72,3.76,3240,13.5,60839.837,283.459229,1009.704224,-170.053574,1.09462973376533,2.2247169577195,2.27570673993465,27.492556,799.633728,174.873611,143.196533,1195.844604,28.223572,"CRUZEXT"
228,16,53,59.853,4302.96,0.685634,-0.006717,0.705992,-0.177304,-0.95476,0.23629,-0.00692,4299.8,0.210144,0.006988,0.63836,-0.740465,-0.23258,0.97088,-0.17416,2.22,2.64,2.33,3.17,3.03,2.97,2.83,3.78,3.31,3.83,4.12,3.95,4,3.72,3.76,3244,13.516667,60839.853667,283.459229,1009.704224,-170.053574,1.09414135521865,2.22490653078891,2.275117951349,27.413176,799.593262,174.860611,143.255112,1195.636841,27.816212,"CRUZEXT"
229,16,53,59.872,4302.98,0.685467,-0.006635,0.706131,-0.177398,-0.95707,0.23751,-0.00799,4299.82,0.216578,0.006932,0.638936,-0.73811,-0.25044,0.95975,-0.1861,2.22,2.64,2.33,3.18,3.03,2.97,2.82,3.78,3.31,3.83,4.12,3.96,4,3.72,3.77,3249,13.5375,60839.8745,283.459229,1009.704224,-170.053574,1.09359792371459,2.22498249552787,2.27459442650583,27.322636,799.559143,174.8508,143.325012,1195.367188,27.387922,"CRUZEXT"
230,16,53,59.878,4303,0.68527,-0.006532,0.706252,-0.177683,-0.95319,0.24379,-0.00888,4299.84,0.222978,0.007074,0.639697,-0.735539,-0.28001,0.93117,-0.18717,2.22,2.64,2.32,3.18,3.03,2.97,2.82,3.78,3.3,3.83,4.12,3.96,4,3.72,3.77,3250,13.541667,60839.878667,283.459229,1009.704224,-170.053574,1.09347614753813,2.22495189369692,2.27452366566075,27.310923,799.553894,174.849457,143.329178,1195.310547,27.319109,"CRUZEXT"
231,16,53,59.911,4303.02,0.685053,-0.006558,0.706391,-0.177967,-0.95271,0.24937,-0.00804,4299.86,0.22982,0.007032,0.640493,-0.732736,-0.31056,0.91284,-0.19067,2.22,2.64,2.31,3.18,3.02,2.97,2.82,3.78,3.31,3.83,4.12,3.96,4,3.72,3.77,3258,13.575,60839.912,283.459229,1009.704224,-170.053574,1.0922911047876,2.2249325769144,2.27356143051437,27.244795,799.519775,174.76033,143.241425,1194.997681,26.767872,"CRUZEXT"
232,16,53,59.918,4303.04,0.684851,-0.006592,0.706533,-0.178175,-0.95027,0.25,-0.00412,4299.88,0.23736,0.007123,0.641431,-0.729504,-0.32554,0.91037,-0.20028,2.22,2.63,2.31,3.19,3.02,2.97,2.83,3.78,3.31,3.82,4.12,3.96,4,3.73,3.77,3260,13.583333,60839.920333,283.459229,1009.704224,-170.053574,1.09195690309461,2.22490522826809,2.2733111562659,27.233671,799.508484,174.726059,143.200256,1194.926147,26.640764,"CRUZEXT"
233,16,53,59.972,4303.06,0.684652,-0.006551,0.706676,-0.178378,-0.95752,0.24517,0.0003,4299.9,0.245311,0.007203,0.64203,-0.726339,-0.29551,0.91275,-0.20462,2.22,2.63,2.31,3.19,3.02,2.97,2.82,3.78,3.3,3.82,4.12,3.96,4,3.73,3.77,3273,13.6375,60839.9745,283.459229,1009.704224,-170.053574,1.08986965590479,2.2247065449284,2.27177195273593,27.189098,799.374817,174.631958,142.961807,1194.450562,25.829561,"CRUZEXT"
234,16,53,59.978,4303.08,0.684547,-0.006501,0.706758,-0.178457,-0.95949,0.24041,0.0031,4299.92,0.253046,0.007095,0.641854,-0.723837,-0.29616,0.91629,-0.19582,2.22,2.63,2.3,3.19,3.01,2.97,2.82,3.78,3.3,3.82,4.12,3.96,4,3.73,3.77,3274,13.641667,60839.978667,283.459229,1009.704224,-170.053574,1.08971251496067,2.22471253627584,2.27163531164696,27.186382,799.371094,174.631958,142.946411,1194.416626,25.760338,"CRUZEXT"
235,16,53,59.994,4303.1,0.684436,-0.006382,0.706864,-0.178465,-0.95604,0.23868,0.00467,4299.94,0.260764,0.006714,0.64151,-0.721403,-0.3284,0.92451,-0.19179,2.22,2.63,2.29,3.19,3.01,2.97,2.82,3.78,3.3,3.82,4.12,3.96,4.01,3.73,3.77,3278,13.658333,60839.995333,283.459229,1009.704224,-170.053574,1.08910334898846,2.22468204946509,2.27115790912335,27.180298,799.352661,174.644577,142.898376,1194.25708,25.488258,"CRUZEXT"
236,16,54,0.011,4303.12,0.684311,-0.006329,0.706955,-0.178589,-0.94943,0.23969,-0.00033,4299.96,0.268793,0.006016,0.641258,-0.718681,-0.34187,0.90845,-0.19169,2.22,2.63,2.29,3.2,3.01,2.97,2.82,3.78,3.3,3.82,4.12,3.96,4,3.73,3.77,3282,13.675,60840.012,283.459229,1009.704224,-170.053574,1.08850187969313,2.22468054267357,2.27065801939407,27.157766,799.34082,174.666611,142.881699,1194.066528,25.170872,"CRUZEXT"
237,16,54,0.017,4303.14,0.684133,-0.006368,0.707062,-0.178841,-0.9492,0.24843,-0.00169,4299.98,0.277148,0.005008,0.640263,-0.716399,-0.31834,0.88939,-0.18403,2.22,2.63,2.29,3.19,3.01,2.97,2.82,3.78,3.3,3.82,4.12,3.96,4,3.73,3.77,3284,13.683333,60840.020333,283.459229,1009.704224,-170.053574,1.08824300731138,2.22467240337765,2.27045005229133,27.149492,799.336426,174.681,142.882126,1193.9729,25.025604,"CRUZEXT"
238,16,54,0.069,4303.16,0.683927,-0.0064,0.707165,-0.179222,-0.95337,0.25319,-0.00354,4300,0.285332,0.003721,0.638944,-0.714369,-0.32139,0.89929,-0.17613,2.22,2.63,2.28,3.2,3,2.97,2.82,3.78,3.3,3.83,4.12,3.96,4,3.73,3.77,3296,13.733333,60840.070333,283.459229,1009.704224,-170.053574,1.08682316885909,2.22456810349304,2.26936625402632,27.053631,799.267334,174.829468,142.924744,1193.394287,24.188967,"CRUZEXT"
239,16,54,0.078,4303.18,0.683784,-0.006506,0.707226,-0.179526,-0.95879,0.24754,-0.00279,4300.02,0.293118,0.002391,0.638283,-0.711808,-0.34944,0.9137,-0.18248,2.21,2.62,2.28,3.2,3,2.97,2.83,3.78,3.3,3.83,4.12,3.96,4,3.74,3.77,3298,13.741667,60840.078667,283.459229,1009.704224,-170.053574,1.08664637784703,2.22459285821103,2.26919411324144,27.035883,799.25885,174.850739,142.957321,1193.295898,24.03886,"CRUZEXT"
240,16,54,0.092,4303.2,0.683631,-0.006651,0.707278,-0.179894,-0.95492,0.24416,-0.00525,4300.04,0.30008,0.001641,0.638408,-0.708791,-0.37129,0.9164,-0.20307,2.21,2.62,2.28,3.2,3,2.97,2.83,3.78,3.3,3.84,4.11,3.96,4,3.74,3.77,3302,13.758333,60840.095333,283.459229,1009.704224,-170.053574,1.08640615075332,2.22472490926923,2.26886363470229,27.012918,799.234009,174.874817,143.079681,1193.083862,23.704981,"CRUZEXT"
241,16,54,0.097,4303.22,0.683488,-0.006842,0.70731,-0.180306,-0.94988,0.24609,-0.00319,4300.06,0.307148,0.000607,0.638188,-0.705958,-0.38996,0.91659,-0.20532,2.21,2.62,2.27,3.2,3,2.97,2.83,3.79,3.3,3.84,4.11,3.97,4,3.74,3.77,3303,13.7625,60840.0995,283.459229,1009.704224,-170.053574,1.0863682368523,2.22476529249673,2.26879230356815,27.011728,799.224548,174.883499,143.116959,1193.031616,23.623104,"CRUZEXT"
242,16,54,0.148,4303.24,0.683345,-0.007123,0.707323,-0.180784,-0.94969,0.24916,-0.00323,4300.08,0.314156,-0.0006,0.636952,-0.703987,-0.38933,0.91122,-0.19798,2.21,2.62,2.27,3.2,2.99,2.97,2.83,3.79,3.31,3.85,4.11,3.97,4,3.74,3.77,3315,13.8125,60840.1495,283.459229,1009.704224,-170.053574,1.08600100419264,2.22521001097265,2.26804861582077,26.946053,799.249634,174.821533,143.562332,1192.428345,22.702768,"CRUZEXT"
243,16,54,0.156,4303.26,0.683211,-0.00733,0.707352,-0.181169,-0.95398,0.24674,0.00047,4300.1,0.320513,-0.001758,0.635554,-0.702381,-0.38492,0.91595,-0.19775,2.21,2.61,2.27,3.2,2.99,2.97,2.83,3.79,3.31,3.85,4.11,3.98,4,3.75,3.77,3317,13.820833,60840.157833,283.459229,1009.704224,-170.053574,1.08596414486332,2.22529896608291,2.26793046294543,26.949703,799.251526,174.812653,143.63147,1192.346436,22.566849,"CRUZEXT"
244,16,54,0.17,4303.28,0.683208,-0.007382,0.707307,-0.181351,-0.95707,0.24109,0.00106,4300.12,0.325939,-0.003449,0.634339,-0.700975,-0.3965,0.90998,-0.21118,2.21,2.61,2.27,3.2,2.99,2.97,2.84,3.79,3.31,3.86,4.11,3.97,4,3.75,3.77,3320,13.833333,60840.170333,283.459229,1009.704224,-170.053574,1.08586622802004,2.22536677528135,2.26778189315821,26.949614,799.265442,174.792725,143.713638,1192.221313,22.383732,"CRUZEXT"
245,16,54,0.194,4303.3,0.683139,-0.007436,0.707366,-0.181382,-0.95926,0.23734,0.00223,4300.14,0.331338,-0.005774,0.632754,-0.69986,-0.44754,0.90703,-0.21804,2.21,2.61,2.27,3.2,2.99,2.97,2.84,3.8,3.31,3.87,4.11,3.98,4,3.75,3.77,3326,13.858333,60840.195333,283.459229,1009.704224,-170.053574,1.08542987854863,2.22550246659969,2.26728298067709,27.388231,798.972595,174.954529,143.776398,1192.02063,22.023598,"CRUZEXT"
246,16,54,0.199,4303.32,0.683162,-0.007391,0.707309,-0.18152,-0.95571,0.24486,0.00378,4300.16,0.338415,-0.007502,0.630611,-0.69839,-0.46694,0.84694,-0.21164,2.21,2.61,2.27,3.2,2.99,2.97,2.84,3.8,3.3,3.87,4.1,3.98,3.99,3.75,3.77,3327,13.8625,60840.1995,283.459229,1009.704224,-170.053574,1.085359670187,2.22551015845064,2.2672165561257,27.389088,798.979431,174.947327,143.787079,1191.984253,21.968096,"CRUZEXT"
247,16,54,0.234,4303.34,0.683207,-0.007335,0.707242,-0.18161,-0.95536,0.24862,0.00474,4300.18,0.345901,-0.009009,0.628319,-0.696769,-0.43004,0.82411,-0.22414,2.21,2.61,2.27,3.2,2.98,2.97,2.84,3.8,3.31,3.88,4.1,3.99,3.99,3.75,3.77,3336,13.9,60840.237,283.459229,1009.704224,-170.053574,1.08446982464735,2.22567091542098,2.26631191385092,27.385637,798.981812,174.905106,143.876465,1191.598999,21.3148,"CRUZEXT"
248,16,54,0.239,4303.36,0.683119,-0.007193,0.707284,-0.181786,-0.9533,0.24644,-0.00133,4300.2,0.352838,-0.010099,0.6265,-0.694911,-0.4288,0.82309,-0.22862,2.21,2.61,2.27,3.2,2.98,2.98,2.85,3.8,3.31,3.88,4.11,3.99,3.99,3.76,3.77,3337,13.904167,60840.241167,283.459229,1009.704224,-170.053574,1.08435681488902,2.22567534737199,2.2662126339775,27.388424,798.974365,174.902328,143.887161,1191.547241,21.236485,"CRUZEXT"
249,16,54,0.273,4303.38,0.683146,-0.007131,0.707244,-0.181843,-0.95422,0.24334,-0.00031,4300.22,0.359154,-0.011144,0.625523,-0.692536,-0.4397,0.84096,-0.23145,2.21,2.6,2.27,3.2,2.98,2.98,2.85,3.8,3.3,3.89,4.11,3.99,3.99,3.76,3.77,3345,13.9375,60840.2745,283.459229,1009.704224,-170.053574,1.08355540878538,2.22577832168597,2.26543779287433,27.365843,798.940613,174.929825,143.948975,1191.216064,20.685175,"CRUZEXT"
250,16,54,0.278,4303.4,0.683148,-0.00713,0.707213,-0.181956,-0.95297,0.24405,-0.00387,4300.24,0.36557,-0.012298,0.62476,-0.689842,-0.48633,0.83803,-0.22675,2.21,2.6,2.27,3.2,2.98,2.98,2.85,3.81,3.3,3.89,4.11,3.99,3.99,3.76,3.77,3346,13.941667,60840.278667,283.459229,1009.704224,-170.053574,1.08345276474318,2.22580245128392,2.26532773429678,27.358345,798.938232,174.934158,143.953827,1191.180298,20.616409,"CRUZEXT"
251,16,54,0.312,4303.42,0.683107,-0.007202,0.70718,-0.182235,-0.94875,0.24623,-0.00485,4300.26,0.373169,-0.013971,0.623253,-0.687099,-0.49273,0.81989,-0.21626,2.21,2.6,2.27,3.2,2.97,2.98,2.85,3.81,3.3,3.9,4.11,4,3.99,3.76,3.77,3354,13.975,60840.312,283.459229,1009.704224,-170.053574,1.08278222240798,2.22607486424064,2.26449553910259,27.283743,798.944824,174.935699,144.03923,1190.904297,20.068741,"CRUZEXT"
252,16,54,0.318,4303.44,0.683054,-0.007368,0.70713,-0.182623,-0.9485,0.25042,-0.00656,4300.28,0.38095,-0.016508,0.620575,-0.685194,-0.46713,0.80983,-0.22187,2.21,2.6,2.27,3.2,2.97,2.98,2.85,3.81,3.31,3.9,4.11,4,3.99,3.77,3.77,3356,13.983333,60840.320333,283.459229,1009.704224,-170.053574,1.08263035054214,2.22614750047328,2.26429619180377,27.265287,798.938477,174.931686,144.068512,1190.831543,19.928888,"CRUZEXT"
253,16,54,0.35,4303.46,0.683005,-0.007532,0.707087,-0.182964,-0.95224,0.24939,-0.0026,4300.3,0.388478,-0.019488,0.617997,-0.683217,-0.46368,0.80221,-0.24459,2.21,2.6,2.27,3.2,2.97,2.99,2.85,3.81,3.31,3.9,4.11,4,3.99,3.77,3.77,3364,14.016667,60840.353667,283.459229,1009.704224,-170.053574,1.08209376862747,2.22638270927614,2.26361258851697,27.181089,798.898804,174.932083,144.181412,1190.557495,19.42742,"CRUZEXT"
254,16,54,0.374,4303.48,0.683014,-0.007617,0.707029,-0.183149,-0.95668,0.2443,-0.00436,4300.32,0.395227,-0.021958,0.616479,-0.680637,-0.51658,0.79311,-0.25678,2.21,2.6,2.27,3.2,2.97,2.99,2.86,3.81,3.3,3.9,4.11,4,3.99,3.77,3.77,3369,14.0375,60840.3745,283.459229,1009.704224,-170.053574,1.08190370590273,2.22665400821965,2.26318543593476,27.134195,798.880859,174.907333,144.290466,1190.415039,19.113997,"CRUZEXT"
255,16,54,0.379,4303.5,0.683017,-0.00772,0.706966,-0.183376,-0.95611,0.24316,-0.00614,4300.34,0.40241,-0.024495,0.615189,-0.677502,-0.52745,0.78085,-0.24915,2.21,2.6,2.27,3.2,2.97,2.99,2.86,3.81,3.3,3.9,4.11,4.01,3.99,3.77,3.76,3371,14.045833,60840.382833,283.459229,1009.704224,-170.053574,1.08183454242471,2.226787728883,2.26299553342895,27.113739,798.870605,174.896439,144.341583,1190.356567,18.976637,"CRUZEXT"
256,16,54,0.41,4303.52,0.682985,-0.007864,0.706927,-0.183641,-0.94781,0.24526,-0.00197,4300.36,0.41012,-0.027864,0.613232,-0.674516,-0.52141,0.78966,-0.2424,2.22,2.59,2.27,3.2,2.97,2.99,2.86,3.81,3.31,3.9,4.11,4.01,3.99,3.78,3.77,3378,14.075,60840.412,283.459229,1009.704224,-170.053574,1.08166341703063,2.22716383258992,2.26248102117533,27.029787,798.852478,174.819473,144.584167,1190.071655,18.469252,"CRUZEXT"
257,16,54,0.434,4303.54,0.682943,-0.008,0.706896,-0.183909,-0.95037,0.24871,-0.00066,4300.38,0.417277,-0.031434,0.610792,-0.672179,-0.51833,0.80158,-0.25232,2.22,2.59,2.27,3.2,2.97,2.99,2.86,3.81,3.31,3.91,4.11,4.01,3.98,3.78,3.76,3384,14.1,60840.437,283.459229,1009.704224,-170.053574,1.08137791600529,2.22739243802232,2.26201489119188,26.954285,798.817261,174.775238,144.743439,1189.821655,18.046148,"CRUZEXT"
258,16,54,0.438,4303.56,0.68292,-0.008107,0.70687,-0.184091,-0.95558,0.2455,-0.0015,4300.4,0.423878,-0.034485,0.608915,-0.669597,-0.54419,0.79705,-0.27483,2.22,2.59,2.27,3.2,2.97,2.99,2.86,3.82,3.3,3.91,4.11,4.01,3.98,3.78,3.76,3385,14.104167,60840.441167,283.459229,1009.704224,-170.053574,1.0813474945028,2.22742842159854,2.26195376704915,26.946123,798.806885,174.776886,144.778,1189.774902,17.974651,"CRUZEXT"
259,16,54,0.474,4303.58,0.682932,-0.008103,0.706835,-0.184183,-0.95579,0.24156,-0.00187,4300.42,0.43031,-0.037242,0.607934,-0.66623,-0.56832,0.77339,-0.28233,2.22,2.59,2.27,3.2,2.97,2.99,2.87,3.82,3.3,3.91,4.11,4.02,3.98,3.79,3.76,3393,14.1375,60840.4745,283.459229,1009.704224,-170.053574,1.08127056869756,2.2279284324208,2.26139641038022,26.907417,798.810059,174.77063,145.046616,1189.516724,17.456913,"CRUZEXT"
260,16,54,0.479,4303.6,0.682867,-0.008104,0.706853,-0.184353,-0.95115,0.24533,-0.00387,4300.44,0.436966,-0.040204,0.606767,-0.662781,-0.59181,0.75495,-0.26922,2.22,2.59,2.27,3.2,2.97,3,2.87,3.82,3.3,3.91,4.11,4.02,3.98,3.79,3.76,3395,14.145833,60840.482833,283.459229,1009.704224,-170.053574,1.08132095492171,2.22810396746547,2.26126609088301,26.901285,798.810181,174.764252,145.145386,1189.446289,17.311275,"CRUZEXT"
261,16,54,0.514,4303.62,0.682816,-0.00817,0.70685,-0.184549,-0.94985,0.25518,-0.00337,4300.46,0.444147,-0.043655,0.60477,-0.659606,-0.5801,0.7684,-0.26324,2.22,2.59,2.28,3.2,2.97,3,2.87,3.82,3.31,3.9,4.11,4.02,3.97,3.79,3.76,3403,14.179167,60840.516167,283.459229,1009.704224,-170.053574,1.08149043887373,2.22865257551595,2.26086878251745,26.869221,798.836853,174.721451,145.574356,1189.073242,16.699751,"CRUZEXT"
262,16,54,0.519,4303.64,0.682811,-0.008227,0.706808,-0.184726,-0.95281,0.25635,0.00272,4300.48,0.45088,-0.047008,0.602487,-0.656891,-0.5726,0.77049,-0.28608,2.22,2.59,2.28,3.2,2.97,3,2.87,3.82,3.3,3.9,4.11,4.02,3.98,3.79,3.76,3404,14.183333,60840.520333,283.459229,1009.704224,-170.053574,1.08150880983786,2.22871228460908,2.26082546193017,26.869345,798.833008,174.718323,145.627579,1189.024048,16.624308,"CRUZEXT"
263,16,54,0.553,4303.66,0.682759,-0.008161,0.706822,-0.18487,-0.95557,0.25052,0.00051,4300.5,0.456383,-0.049113,0.601312,-0.654008,-0.60139,0.7782,-0.30636,2.22,2.59,2.29,3.2,2.98,3,2.88,3.82,3.3,3.9,4.11,4.02,3.97,3.8,3.76,3412,14.216667,60840.553667,283.459229,1009.704224,-170.053574,1.08182786388579,2.22916841824786,2.26064541343004,26.875088,798.830688,174.73761,146.078659,1188.649902,16.08432,"CRUZEXT"
264,16,54,0.572,4303.68,0.682817,-0.008143,0.706754,-0.184915,-0.95612,0.24365,0.00094,4300.52,0.461598,-0.050668,0.600904,-0.650596,-0.62027,0.77722,-0.29511,2.22,2.6,2.29,3.2,2.98,3,2.88,3.82,3.3,3.9,4.11,4.02,3.97,3.79,3.76,3417,14.2375,60840.5745,283.459229,1009.704224,-170.053574,1.08225605446919,2.229542647579,2.26063804262244,26.888649,798.851074,174.752609,146.421173,1188.43396,15.768148,"CRUZEXT"
265,16,54,0.577,4303.7,0.682816,-0.008172,0.7067,-0.185124,-0.9515,0.2467,-0.00426,4300.54,0.46692,-0.052818,0.599626,-0.647799,-0.63639,0.74847,-0.28852,2.22,2.6,2.3,3.2,2.99,3,2.88,3.82,3.31,3.9,4.11,4.02,3.96,3.8,3.76,3418,14.241667,60840.578667,283.459229,1009.704224,-170.053574,1.08241365641094,2.22964873907512,2.26066646833939,26.897709,798.855469,174.751755,146.507431,1188.398926,15.712666,"CRUZEXT"
266,16,54,0.61,4303.72,0.682835,-0.008322,0.7066,-0.18543,-0.94611,0.25443,-0.00155,4300.56,0.472369,-0.055616,0.597418,-0.645652,-0.62329,0.71341,-0.28528,2.22,2.61,2.3,3.19,2.99,3,2.88,3.82,3.3,3.9,4.11,4.03,3.96,3.8,3.75,3426,14.275,60840.612,283.459229,1009.704224,-170.053574,1.08327667851073,2.2302676923617,2.26078403554343,26.926203,798.91748,174.687912,147.047806,1188.125977,15.3072,"CRUZEXT"
267,16,54,0.636,4303.74,0.682878,-0.008464,0.706484,-0.185704,-0.9492,0.25588,0.00166,4300.58,0.477188,-0.058276,0.595418,-0.643718,-0.61972,0.6955,-0.29014,2.22,2.61,2.31,3.19,3,3,2.88,3.81,3.3,3.9,4.11,4.03,3.96,3.8,3.75,3432,14.3,60840.637,283.459229,1009.704224,-170.053574,1.08388548332447,2.23068178961744,2.26088856901348,26.94603,798.983887,174.647141,147.407074,1187.955811,15.055012,"CRUZEXT"
268,16,54,0.641,4303.76,0.682947,-0.008496,0.706386,-0.185824,-0.9555,0.25087,-0.0019,4300.6,0.481932,-0.060284,0.59451,-0.640832,-0.65166,0.71287,-0.3038,2.22,2.62,2.32,3.19,3,3,2.88,3.81,3.3,3.89,4.11,4.03,3.95,3.8,3.75,3433,14.304167,60840.641167,283.459229,1009.704224,-170.053574,1.08399564420309,2.23074771124268,2.26091631543275,26.956671,798.982605,174.651672,147.463333,1187.934326,15.023198,"CRUZEXT"
269,16,54,0.673,4303.78,0.68306,-0.008439,0.706284,-0.185796,-0.96061,0.24336,-0.00265,4300.62,0.486779,-0.061981,0.594011,-0.63746,-0.66091,0.68386,-0.31464,2.22,2.63,2.32,3.19,3,3,2.89,3.81,3.3,3.89,4.1,4.03,3.95,3.8,3.75,3441,14.3375,60840.6745,283.459229,1009.704224,-170.053574,1.08506564891724,2.2314875425275,2.26108675123601,27.036585,799.041443,174.605804,147.972046,1187.796997,14.742645,"CRUZEXT"
270,16,54,0.692,4303.8,0.683115,-0.008433,0.70623,-0.185799,-0.95609,0.24491,-0.00448,4300.64,0.492272,-0.06421,0.592889,-0.634056,-0.67336,0.67259,-0.30003,2.22,2.63,2.33,3.19,3,3,2.89,3.82,3.3,3.89,4.1,4.03,3.94,3.8,3.75,3446,14.358333,60840.695333,283.459229,1009.704224,-170.053574,1.08588519318911,2.23201003936159,2.26125979756962,27.077295,799.083069,174.564178,148.344635,1187.703003,14.559728,"CRUZEXT"
271,16,54,0.697,4303.82,0.68321,-0.008455,0.706119,-0.185873,-0.94943,0.25246,-0.00335,4300.66,0.49803,-0.067514,0.59105,-0.630926,-0.63926,0.65588,-0.29353,2.22,2.63,2.33,3.19,3.01,3,2.89,3.81,3.3,3.89,4.09,4.03,3.94,3.8,3.75,3447,14.3625,60840.6995,283.459229,1009.704224,-170.053574,1.08604516670388,2.23213287694148,2.2612728901681,27.073061,799.093445,174.552612,148.421616,1187.683716,14.513512,"CRUZEXT"
272,16,54,0.735,4303.84,0.683324,-0.008484,0.705988,-0.185947,-0.94723,0.25405,-0.00162,4300.68,0.502847,-0.070518,0.589292,-0.628416,-0.62238,0.65412,-0.29832,2.22,2.64,2.34,3.18,3.01,3,2.89,3.81,3.3,3.89,4.09,4.03,3.93,3.8,3.75,3456,14.4,60840.737,283.459229,1009.704224,-170.053574,1.08723860952277,2.23274399179516,2.2616708300983,27.089779,799.119629,174.557739,149.008377,1187.452393,14.217737,"CRUZEXT"
273,16,54,0.74,4303.86,0.683431,-0.008439,0.705915,-0.185834,-0.95394,0.24643,-0.00103,4300.7,0.507812,-0.072876,0.588185,-0.625184,-0.66382,0.66164,-0.31986,2.22,2.64,2.34,3.18,3.01,3,2.89,3.81,3.3,3.9,4.09,4.03,3.93,3.8,3.75,3457,14.404167,60840.741167,283.459229,1009.704224,-170.053574,1.08731316990373,2.23276486766048,2.26171271184563,27.092424,799.115356,174.568451,149.056549,1187.418701,14.187205,"CRUZEXT"
274,16,54,0.79,4303.88,0.683526,-0.008444,0.705814,-0.185871,-0.95647,0.24325,-0.01132,4300.72,0.512593,-0.075042,0.58765,-0.621518,-0.68876,0.64708,-0.32274,2.22,2.64,2.34,3.18,3.02,3,2.89,3.81,3.3,3.89,4.09,4.03,3.92,3.8,3.75,3469,14.454167,60840.791167,283.459229,1009.704224,-170.053574,1.08918499988128,2.23359299603903,2.26246158207275,27.026983,799.126343,174.64682,149.922775,1187.093628,13.821355,"CRUZEXT"
275,16,54,0.795,4303.9,0.68354,-0.008453,0.705716,-0.186189,-0.95025,0.24925,-0.00943,4300.74,0.517922,-0.077543,0.586607,-0.617768,-0.67815,0.63407,-0.31888,2.22,2.65,2.34,3.18,3.02,3.01,2.89,3.81,3.3,3.89,4.08,4.03,3.92,3.8,3.75,3470,14.458333,60840.795333,283.459229,1009.704224,-170.053574,1.0893735699389,2.23369200800097,2.2625213787826,27.015696,799.132446,174.637619,150.011398,1187.062378,13.77892,"CRUZEXT"
276,16,54,0.814,4303.92,0.683483,-0.008686,0.705694,-0.186469,-0.94589,0.25806,-0.01055,4300.76,0.52251,-0.080235,0.585364,-0.614731,-0.67119,0.62095,-0.31133,2.22,2.65,2.35,3.18,3.02,3,2.89,3.81,3.3,3.89,4.08,4.03,3.92,3.8,3.75,3475,14.479167,60840.816167,283.459229,1009.704224,-170.053574,1.09035554890547,2.23416629067445,2.2628728087723,26.973047,799.132019,174.634094,150.434036,1186.941284,13.619788,"CRUZEXT"
277,16,54,0.819,4303.94,0.683445,-0.008853,0.70568,-0.186654,-0.94971,0.2541,-0.0094,4300.78,0.527273,-0.082776,0.584365,-0.611268,-0.71047,0.63114,-0.32073,2.22,2.65,2.35,3.17,3.03,3,2.89,3.81,3.3,3.89,4.07,4.02,3.91,3.8,3.75,3476,14.483333,60840.820333,283.459229,1009.704224,-170.053574,1.0905666226635,2.23425399090317,2.26296224842968,26.968353,799.133545,174.628494,150.524628,1186.912231,13.588889,"CRUZEXT"
278,16,54,0.873,4303.96,0.683487,-0.009064,0.705612,-0.186749,-0.95539,0.24548,-0.0097,4300.8,0.5318,-0.085127,0.583568,-0.607775,-0.72454,0.61914,-0.32811,2.23,2.65,2.36,3.17,3.03,3,2.9,3.82,3.3,3.89,4.07,4.02,3.91,3.79,3.74,3489,14.5375,60840.8745,283.459229,1009.704224,-170.053574,1.09315277842317,2.23487686103783,2.26449932036955,26.885387,799.155029,174.537506,151.554657,1186.557861,13.415095,"CRUZEXT"
279,16,54,0.878,4303.98,0.683488,-0.009216,0.705571,-0.186893,-0.95417,0.24236,-0.00691,4300.82,0.536508,-0.08742,0.582519,-0.604309,-0.74121,0.61305,-0.31869,2.23,2.65,2.36,3.17,3.04,3,2.9,3.81,3.29,3.89,4.07,4.02,3.9,3.8,3.74,3490,14.541667,60840.878667,283.459229,1009.704224,-170.053574,1.09330413444133,2.23491839898182,2.26458398299013,26.87953,799.15625,174.517319,151.616882,1186.535522,13.40086,"CRUZEXT"
280,16,54,0.883,4304,0.683482,-0.009416,0.705541,-0.187015,-0.95356,0.24571,-0.00626,4300.84,0.540965,-0.089912,0.581062,-0.601365,-0.73607,0.60311,-0.30655,2.23,2.66,2.37,3.17,3.04,3,2.9,3.81,3.29,3.89,4.07,4.02,3.89,3.79,3.73,3492,14.55,60840.887,283.459229,1009.704224,-170.053574,1.09360848355235,2.23502260871811,2.26473371123344,26.871912,799.168396,174.49794,151.75354,1186.479736,13.351581,"CRUZEXT"
281,16,54,0.927,4304.02,0.683501,-0.009533,0.705486,-0.187149,-0.95192,0.24724,-0.00453,4300.86,0.546007,-0.092806,0.579532,-0.597834,-0.73853,0.5923,-0.31417,2.23,2.66,2.37,3.16,3.05,3,2.9,3.81,3.29,3.89,4.06,4.02,3.89,3.79,3.73,3502,14.591667,60840.928667,283.459229,1009.704224,-170.053574,1.09489007272001,2.23537991126066,2.26544333255261,26.850422,799.206238,174.407364,152.381332,1186.154907,13.087098,"CRUZEXT"
282,16,54,0.932,4304.04,0.683555,-0.009583,0.705415,-0.187217,-0.95365,0.25155,-0.00213,4300.88,0.550237,-0.094964,0.57843,-0.594676,-0.70187,0.56695,-0.32071,2.23,2.66,2.38,3.16,3.05,3,2.9,3.81,3.29,3.89,4.06,4.02,3.89,3.79,3.73,3503,14.595833,60840.932833,283.459229,1009.704224,-170.053574,1.09500661626757,2.23542119500174,2.26549907598555,26.852789,799.211548,174.4048,152.443985,1186.119751,13.053211,"CRUZEXT"
283,16,54,0.95,4304.06,0.683637,-0.009598,0.705353,-0.18715,-0.95408,0.24653,-0.00541,4300.9,0.554442,-0.097238,0.577645,-0.591156,-0.76409,0.55389,-0.32683,2.23,2.67,2.38,3.16,3.05,3,2.91,3.81,3.29,3.89,4.06,4.02,3.88,3.79,3.72,3508,14.616667,60840.953667,283.459229,1009.704224,-170.053574,1.09572472269319,2.23566061410312,2.26585691993692,26.863077,799.230347,174.378052,152.757614,1185.996948,12.948405,"CRUZEXT"
284,16,54,0.974,4304.08,0.683715,-0.009607,0.705277,-0.187152,-0.95295,0.24667,-0.00527,4300.92,0.558782,-0.099295,0.576692,-0.587647,-0.7481,0.54735,-0.31918,2.24,2.67,2.38,3.15,3.06,3,2.91,3.81,3.29,3.88,4.06,4.02,3.88,3.79,3.72,3513,14.6375,60840.9745,283.459229,1009.704224,-170.053574,1.09649799840952,2.23589761471807,2.26626203475568,26.869884,799.252502,174.368927,153.085007,1185.873413,12.853705,"CRUZEXT"
285,16,54,0.978,4304.1,0.683796,-0.009572,0.705165,-0.187278,-0.95032,0.25134,-0.00455,4300.94,0.563038,-0.101625,0.575663,-0.584185,-0.76015,0.55722,-0.32816,2.24,2.67,2.39,3.15,3.06,3,2.91,3.81,3.29,3.88,4.06,4.02,3.87,3.79,3.72,3514,14.641667,60840.978667,283.459229,1009.704224,-170.053574,1.09668010863771,2.23593920178791,2.26637136994032,26.866165,799.268555,174.368896,153.160019,1185.843872,12.837294,"CRUZEXT"
286,16,54,1.034,4304.12,0.683944,-0.009565,0.705005,-0.187344,-0.95182,0.25208,-0.00912,4300.96,0.5672,-0.104233,0.574547,-0.580788,-0.77921,0.54721,-0.33925,2.24,2.67,2.39,3.15,3.07,3,2.92,3.81,3.29,3.88,4.06,4.02,3.86,3.79,3.72,3528,14.7,60841.037,283.459229,1009.704224,-170.053574,1.09890148090307,2.23664059698673,2.26750986618544,26.877457,799.400574,174.419754,154.083969,1185.512695,12.57901,"CRUZEXT"
287,16,54,1.039,4304.14,0.684051,-0.009619,0.704869,-0.187461,-0.95353,0.25026,-0.00577,4300.98,0.571568,-0.106569,0.57327,-0.577333,-0.75992,0.53179,-0.33541,2.25,2.67,2.4,3.15,3.07,2.99,2.92,3.81,3.28,3.88,4.06,4.02,3.86,3.79,3.72,3529,14.704167,60841.041167,283.459229,1009.704224,-170.053574,1.09908435588365,2.23667825419265,2.26762312485783,26.872257,799.421692,174.419159,154.15799,1185.483521,12.564666,"CRUZEXT"
288,16,54,1.044,4304.16,0.684105,-0.009626,0.704761,-0.187669,-0.95255,0.25171,-0.00898,4301,0.575579,-0.10969,0.57163,-0.574383,-0.78852,0.53017,-0.32392,2.25,2.67,2.41,3.15,3.08,2.99,2.92,3.81,3.28,3.88,4.06,4.02,3.85,3.79,3.72,3530,14.708333,60841.045333,283.459229,1009.704224,-170.053574,1.0993387625054,2.23678736304622,2.2677246246264,26.875355,799.42865,174.423203,154.256668,1185.461426,12.538497,"CRUZEXT"
289,16,54,1.07,4304.18,0.684207,-0.009738,0.704605,-0.187877,-0.95173,0.25387,-0.00961,4301.02,0.579523,-0.113165,0.569962,-0.571393,-0.76167,0.52717,-0.32593,2.25,2.67,2.41,3.14,3.08,3,2.92,3.81,3.28,3.88,4.06,4.02,3.85,3.79,3.71,3536,14.733333,60841.070333,283.459229,1009.704224,-170.053574,1.10066585449063,2.23743100014731,2.26817916225747,26.873915,799.49292,174.444763,154.784683,1185.343872,12.366049,"CRUZEXT"
