Sample,Hour,Minute,Sec,Stamp,Quat1,Quat2,Quat3,Quat4,AccX,AccY,AccZ,Stamp2,Quat2_1,Quat2_2,Quat2_3,Quat2_4,Acc2_X,Acc2_Y,Acc2_Z,A0,A1,A2,A3,A4,A5,A6,A7,A8,A9,A10,A11,A12,A13,A14,Frame,Time,realTime,BrazoX,BrazoY,BrazoZ,angBrazoX,angBrazoY,angBrazoZ,EspaldaX,EspaldaY,EspaldaZ,refX,refY,refZ,type
2,17,3,20.031,4863.04,0.650458,-0.082342,0.688381,-0.310251,-0.93187,0.31759,-0.04347,4859.88,0.603354,-0.346874,0.471072,-0.541971,-0.92986,0.08983,-0.32244,2.16,2.57,2.71,2.77,3.15,3.03,3.02,3.83,3.2,3.92,4.03,3.92,3.77,3.83,3.7,2150,8.958333,61400.032333,259.872284,966.747009,-161.138367,1.23239955087269,2.46661123501447,2.12869687062376,23.13493,805.840332,162.241592,167.77446,1183.336914,-14.268476,"CRUZEXT"
3,17,3,20.049,4863.06,0.650364,-0.082328,0.688466,-0.310262,-0.92951,0.31588,-0.04283,4859.9,0.60328,-0.347054,0.470905,-0.542085,-0.93039,0.08646,-0.32629,2.16,2.57,2.71,2.77,3.15,3.03,3.02,3.83,3.2,3.92,4.03,3.92,3.77,3.83,3.7,2154,8.975,61400.049,259.808289,966.706848,-161.137299,1.23245261572848,2.46670486248564,2.12863216627857,23.123796,805.839966,162.255737,167.725128,1183.311157,-14.283875,"CRUZEXT"
4,17,3,20.056,4863.08,0.65031,-0.082304,0.688516,-0.310271,-0.93293,0.31702,-0.04309,4859.92,0.603211,-0.347117,0.470821,-0.542194,-0.93019,0.08135,-0.32511,2.16,2.57,2.71,2.77,3.15,3.03,3.02,3.83,3.2,3.92,4.03,3.92,3.77,3.83,3.7,2156,8.983333,61400.057333,259.780304,966.689819,-161.136688,1.23245858679178,2.46678364699704,2.12855074797053,23.122292,805.829773,162.259186,167.699814,1183.305176,-14.304195,"CRUZEXT"
5,17,3,20.062,4863.1,0.650246,-0.082266,0.688551,-0.310339,-0.93584,0.3173,-0.0415,4859.94,0.603182,-0.347117,0.470825,-0.542223,-0.92726,0.08376,-0.32375,2.16,2.57,2.71,2.77,3.15,3.03,3.02,3.83,3.2,3.92,4.03,3.92,3.77,3.83,3.7,2158,8.991667,61400.065667,259.751129,966.668884,-161.138702,1.2324836718364,2.46680591785534,2.12854404478222,23.117271,805.822754,162.258835,167.677521,1183.287354,-14.308293,"CRUZEXT"
6,17,3,20.068,4863.12,0.650211,-0.082228,0.688591,-0.310333,-0.9338,0.31756,-0.04278,4859.96,0.603195,-0.347226,0.470756,-0.542199,-0.92768,0.08627,-0.32361,2.16,2.57,2.71,2.77,3.15,3.03,3.02,3.83,3.2,3.92,4.03,3.92,3.77,3.83,3.7,2159,8.995833,61400.069833,259.738068,966.66095,-161.137207,1.23251616033981,2.46685508164336,2.12851328839944,23.125189,805.816223,162.258057,167.673782,1183.286011,-14.315345,"CRUZEXT"
7,17,3,20.074,4863.14,0.650162,-0.082203,0.68864,-0.310334,-0.93192,0.31634,-0.04027,4859.98,0.603139,-0.347241,0.470719,-0.542283,-0.92862,0.085,-0.32537,2.16,2.57,2.71,2.77,3.15,3.03,3.02,3.83,3.2,3.92,4.03,3.92,3.77,3.83,3.7,2160,9,61400.074,259.723602,966.652649,-161.139343,1.23250759215234,2.46685169091347,2.12851099834571,23.120907,805.809631,162.260803,167.658173,1183.274536,-14.319773,"CRUZEXT"
8,17,3,20.08,4863.16,0.650068,-0.08218,0.688715,-0.310371,-0.93169,0.31794,-0.04147,4860,0.603237,-0.347278,0.470547,-0.5423,-0.92901,0.08444,-0.32884,2.16,2.57,2.71,2.77,3.15,3.03,3.02,3.83,3.2,3.93,4.03,3.92,3.77,3.83,3.7,2162,9.008333,61400.082333,259.699188,966.632935,-161.138412,1.23253558813347,2.46692605542872,2.12844973262471,23.118725,805.804688,162.266479,167.640259,1183.269653,-14.331945,"CRUZEXT"
9,17,3,20.093,4863.18,0.650023,-0.082163,0.688759,-0.310371,-0.93122,0.31742,-0.04257,4860.02,0.603263,-0.347207,0.470482,-0.542372,-0.92829,0.08442,-0.32614,2.16,2.57,2.71,2.77,3.15,3.03,3.02,3.84,3.2,3.92,4.04,3.92,3.77,3.83,3.7,2165,9.020833,61400.094833,259.659393,966.605469,-161.141449,1.23259744467976,2.46700331008213,2.12840892974342,23.116552,805.786377,162.271667,167.613937,1183.261963,-14.340257,"CRUZEXT"
10,17,3,20.098,4863.2,0.650011,-0.082131,0.688789,-0.310339,-0.93091,0.31635,-0.0447,4860.04,0.603282,-0.347143,0.470465,-0.542406,-0.92782,0.08658,-0.32406,2.16,2.57,2.71,2.77,3.15,3.03,3.02,3.83,3.2,3.92,4.03,3.92,3.77,3.83,3.7,2166,9.025,61400.099,259.638885,966.590576,-161.133896,1.23265653500564,2.46710613682272,2.12833841306252,23.112379,805.781128,162.271866,167.610809,1183.260376,-14.352359,"CRUZEXT"
11,17,3,20.104,4863.22,0.649975,-0.082077,0.688837,-0.310322,-0.9315,0.31836,-0.04257,4860.06,0.603267,-0.347098,0.470411,-0.542498,-0.92718,0.08859,-0.32394,2.16,2.57,2.71,2.77,3.15,3.03,3.02,3.83,3.2,3.92,4.03,3.92,3.77,3.83,3.7,2168,9.033333,61400.107333,259.618652,966.581238,-161.139435,1.23265776044155,2.46709512044211,2.12835123497085,23.108692,805.775818,162.279877,167.589127,1183.253296,-14.352057,"CRUZEXT"
12,17,3,20.132,4863.24,0.649926,-0.082065,0.688885,-0.31032,-0.93164,0.31907,-0.04313,4860.08,0.603239,-0.347136,0.470307,-0.542596,-0.92848,0.08819,-0.32633,2.16,2.57,2.71,2.77,3.15,3.03,3.02,3.83,3.2,3.92,4.03,3.92,3.77,3.83,3.71,2174,9.058333,61400.132333,259.588989,966.545837,-161.128052,1.23261804469274,2.46717686903588,2.1282347379557,23.093174,805.757629,162.272964,167.551041,1183.227417,-14.371242,"CRUZEXT"
13,17,3,20.139,4863.26,0.649933,-0.082097,0.688868,-0.310334,-0.93199,0.31686,-0.04325,4860.1,0.603344,-0.347071,0.47024,-0.542579,-0.92983,0.08529,-0.32713,2.16,2.57,2.71,2.77,3.15,3.03,3.02,3.83,3.2,3.92,4.03,3.92,3.77,3.83,3.71,2176,9.066667,61400.140667,259.584015,966.540771,-161.125397,1.23258898020414,2.467244324102,2.12814118540222,23.093761,805.74884,162.265289,167.542465,1183.224609,-14.396995,"CRUZEXT"
14,17,3,20.185,4863.28,0.649862,-0.082108,0.688918,-0.31037,-0.93206,0.31601,-0.04166,4860.12,0.60341,-0.346948,0.470289,-0.542542,-0.92693,0.08813,-0.32397,2.16,2.57,2.71,2.77,3.15,3.03,3.02,3.83,3.2,3.92,4.04,3.92,3.77,3.83,3.7,2187,9.1125,61400.1865,259.5737,966.467529,-161.152359,1.23251145026685,2.46735888830334,2.12796263287976,23.052759,805.736267,162.239746,167.504837,1183.187744,-14.454802,"CRUZEXT"
15,17,3,20.19,4863.3,0.649824,-0.08212,0.688973,-0.310324,-0.9307,0.31594,-0.04093,4860.14,0.603435,-0.346868,0.470334,-0.542526,-0.92601,0.08972,-0.32404,2.16,2.57,2.71,2.77,3.15,3.03,3.02,3.83,3.2,3.92,4.04,3.92,3.77,3.83,3.71,2188,9.116667,61400.190667,259.573914,966.461853,-161.146896,1.23248915912287,2.46733661836203,2.12797128302294,23.053921,805.724854,162.237213,167.49942,1183.177734,-14.447625,"CRUZEXT"
16,17,3,20.207,4863.32,0.649754,-0.082108,0.689052,-0.310299,-0.93059,0.3163,-0.04197,4860.16,0.603372,-0.347051,0.470289,-0.542519,-0.92676,0.08756,-0.32417,2.16,2.57,2.71,2.77,3.15,3.03,3.02,3.83,3.2,3.92,4.03,3.92,3.77,3.83,3.7,2192,9.133333,61400.207333,259.577515,966.429443,-161.151962,1.23248650898475,2.46742114986424,2.12787757632067,23.055412,805.717529,162.228409,167.501053,1183.162964,-14.472726,"CRUZEXT"
17,17,3,20.212,4863.34,0.649671,-0.082076,0.689136,-0.310295,-0.93267,0.31445,-0.0417,4860.18,0.603352,-0.347033,0.47028,-0.54256,-0.92831,0.08517,-0.32722,2.16,2.57,2.71,2.77,3.15,3.03,3.02,3.83,3.2,3.92,4.03,3.92,3.77,3.83,3.71,2194,9.141667,61400.215667,259.581055,966.422302,-161.150253,1.23248535725455,2.4674465384094,2.12784918284493,23.051262,805.712219,162.21698,167.504837,1183.158936,-14.478572,"CRUZEXT"
18,17,3,20.261,4863.36,0.649655,-0.08208,0.689168,-0.310257,-0.93368,0.31559,-0.04138,4860.2,0.60337,-0.347176,0.470199,-0.542519,-0.93037,0.08521,-0.3252,2.16,2.57,2.71,2.77,3.15,3.03,3.02,3.83,3.2,3.92,4.03,3.92,3.76,3.83,3.7,2205,9.1875,61400.2615,259.599945,966.388855,-161.155365,1.23240488233687,2.46747891725189,2.12775784245805,23.043098,805.695313,162.190033,167.499863,1183.137695,-14.500729,"CRUZEXT"
19,17,3,20.266,4863.38,0.649616,-0.082008,0.689234,-0.310209,-0.9323,0.31548,-0.04203,4860.22,0.603357,-0.347163,0.470215,-0.542528,-0.92906,0.08592,-0.32563,2.16,2.57,2.71,2.77,3.15,3.03,3.02,3.83,3.2,3.92,4.04,3.92,3.77,3.83,3.7,2207,9.195833,61400.269833,259.60498,966.391479,-161.16011,1.23237565260068,2.46745388534814,2.12776464814447,23.043196,805.690247,162.191437,167.499115,1183.131592,-14.506843,"CRUZEXT"
20,17,3,20.286,4863.4,0.649579,-0.081974,0.689332,-0.31008,-0.93347,0.31527,-0.04243,4860.24,0.603335,-0.347143,0.470219,-0.542562,-0.92923,0.08568,-0.32558,2.16,2.57,2.71,2.77,3.15,3.03,3.02,3.83,3.2,3.92,4.03,3.92,3.77,3.83,3.7,2211,9.2125,61400.2865,259.613281,966.38501,-161.155762,1.23236995054301,2.46746872651349,2.12774453899649,23.054876,805.681274,162.182663,167.505875,1183.127808,-14.507153,"CRUZEXT"
21,17,3,20.304,4863.42,0.649546,-0.081922,0.689382,-0.310051,-0.93119,0.31632,-0.04044,4860.26,0.603406,-0.34712,0.470185,-0.542527,-0.92838,0.08418,-0.32591,2.16,2.57,2.71,2.77,3.15,3.03,3.02,3.83,3.2,3.92,4.03,3.92,3.77,3.83,3.71,2216,9.233333,61400.307333,259.628204,966.387573,-161.14653,1.23224493508719,2.4673979484501,2.12773419706921,23.056561,805.673706,162.188538,167.487335,1183.119873,-14.499166,"CRUZEXT"
22,17,3,20.309,4863.44,0.649519,-0.081881,0.689424,-0.310025,-0.93141,0.31801,-0.04077,4860.28,0.603406,-0.347038,0.470255,-0.542518,-0.92737,0.08494,-0.32656,2.16,2.57,2.71,2.77,3.15,3.03,3.02,3.83,3.2,3.92,4.03,3.92,3.77,3.83,3.7,2217,9.2375,61400.3115,259.624908,966.384033,-161.140518,1.23226428887544,2.46744074817741,2.12770119113116,23.056034,805.671387,162.186081,167.490646,1183.120117,-14.503382,"CRUZEXT"
23,17,3,20.359,4863.46,0.649485,-0.081878,0.689488,-0.309955,-0.9327,0.31714,-0.04049,4860.3,0.603473,-0.346959,0.470258,-0.542492,-0.92681,0.0832,-0.32354,2.16,2.57,2.71,2.77,3.15,3.03,3.02,3.83,3.2,3.92,4.03,3.92,3.77,3.83,3.71,2229,9.2875,61400.3615,259.605469,966.331299,-161.103897,1.23231345955714,2.46756214210102,2.12760357579134,23.063854,805.641235,162.190063,167.483566,1183.0896,-14.488942,"CRUZEXT"
24,17,3,20.364,4863.48,0.64945,-0.08184,0.689539,-0.309925,-0.93134,0.31733,-0.04013,4860.32,0.60346,-0.346929,0.470267,-0.542517,-0.92763,0.08472,-0.32532,2.16,2.57,2.71,2.77,3.15,3.03,3.02,3.83,3.2,3.92,4.03,3.92,3.77,3.83,3.7,2230,9.291667,61400.365667,259.596405,966.326416,-161.098984,1.23233260524975,2.46755643730065,2.12762314213066,23.060183,805.648865,162.193924,167.481842,1183.078247,-14.483129,"CRUZEXT"
25,17,3,20.384,4863.5,0.649455,-0.081785,0.689531,-0.309944,-0.93162,0.31845,-0.04128,4860.34,0.603454,-0.346925,0.470252,-0.542539,-0.92643,0.08329,-0.3254,2.16,2.57,2.71,2.77,3.15,3.03,3.02,3.83,3.19,3.92,4.03,3.92,3.77,3.83,3.7,2235,9.3125,61400.3865,259.592438,966.286316,-161.070877,1.23233715199668,2.46767963627866,2.1274924057615,23.055033,805.633179,162.195709,167.475861,1183.067017,-14.480715,"CRUZEXT"
26,17,3,20.389,4863.52,0.649416,-0.08177,0.689583,-0.309915,-0.93215,0.31784,-0.03978,4860.36,0.603599,-0.347055,0.470083,-0.542442,-0.92653,0.08486,-0.3249,2.16,2.57,2.71,2.77,3.15,3.03,3.02,3.83,3.2,3.92,4.03,3.92,3.77,3.83,3.71,2236,9.316667,61400.390667,259.588348,966.283569,-161.067154,1.2323356236376,2.46764872420468,2.12752493938781,23.052546,805.633179,162.197479,167.470627,1183.060669,-14.468145,"CRUZEXT"
27,17,3,20.441,4863.54,0.649391,-0.081753,0.689618,-0.309896,-0.93169,0.31825,-0.04126,4860.38,0.603593,-0.347048,0.470081,-0.542454,-0.92597,0.08519,-0.32244,2.16,2.57,2.71,2.77,3.15,3.03,3.02,3.83,3.2,3.92,4.03,3.92,3.77,3.83,3.71,2249,9.370833,61400.444833,259.516724,966.178528,-161.012848,1.23252478534883,2.46791619515325,2.12736624400776,23.052116,805.595154,162.229263,167.450363,1182.997559,-14.454174,"CRUZEXT"
28,17,3,20.446,4863.56,0.649405,-0.081763,0.689636,-0.309822,-0.93211,0.31825,-0.0411,4860.4,0.603623,-0.347176,0.46996,-0.542444,-0.92812,0.08512,-0.32626,2.16,2.57,2.71,2.77,3.15,3.03,3.02,3.83,3.2,3.92,4.03,3.92,3.77,3.83,3.7,2250,9.375,61400.449,259.515381,966.172913,-161.007187,1.23252270762416,2.4679310763707,2.12734861787934,23.050489,805.591431,162.224548,167.446564,1182.999023,-14.449621,"CRUZEXT"
29,17,3,20.465,4863.58,0.649374,-0.081728,0.689692,-0.309772,-0.93239,0.31726,-0.04215,4860.42,0.603614,-0.347196,0.469935,-0.542463,-0.92899,0.08602,-0.32657,2.16,2.57,2.71,2.77,3.15,3.03,3.02,3.83,3.2,3.92,4.03,3.92,3.77,3.83,3.71,2254,9.391667,61400.465667,259.503937,966.148621,-160.985107,1.23254271066227,2.46796534483337,2.12732532815179,23.034388,805.58905,162.239075,167.441681,1182.977539,-14.435138,"CRUZEXT"
30,17,3,20.471,4863.6,0.649428,-0.081703,0.689679,-0.309696,-0.93169,0.31599,-0.04074,4860.44,0.603618,-0.347155,0.469958,-0.542464,-0.92726,0.08595,-0.32542,2.16,2.57,2.71,2.77,3.15,3.03,3.02,3.83,3.2,3.93,4.03,3.92,3.77,3.83,3.7,2256,9.4,61400.474,259.506348,966.133545,-160.978119,1.23250260413898,2.46797552635539,2.12728626728301,23.032881,805.572571,162.241882,167.431519,1182.969116,-14.434046,"CRUZEXT"
31,17,3,20.503,4863.62,0.649404,-0.081668,0.689728,-0.309645,-0.93213,0.31724,-0.04199,4860.46,0.603455,-0.347321,0.470002,-0.542501,-0.92733,0.08595,-0.32228,2.16,2.57,2.71,2.77,3.15,3.03,3.02,3.83,3.2,3.92,4.04,3.92,3.77,3.83,3.71,2263,9.429167,61400.503167,259.465637,966.085632,-160.967636,1.23262401696737,2.468085521685,2.12725143371529,23.017248,805.561035,162.250641,167.42157,1182.942627,-14.430155,"CRUZEXT"
32,17,3,20.527,4863.64,0.64939,-0.081648,0.689764,-0.309598,-0.93138,0.31822,-0.04152,4860.48,0.603418,-0.347326,0.470036,-0.54251,-0.9292,0.08719,-0.32474,2.16,2.57,2.71,2.77,3.15,3.03,3.02,3.83,3.2,3.92,4.03,3.92,3.77,3.83,3.71,2269,9.454167,61400.528167,259.437714,966.053406,-160.952682,1.23266095089662,2.46816192694444,2.12719415022514,23.003792,805.543274,162.251984,167.401154,1182.928711,-14.425258,"CRUZEXT"
33,17,3,20.531,4863.66,0.649433,-0.081606,0.689729,-0.309599,-0.93129,0.31829,-0.04239,4860.5,0.603534,-0.347304,0.469967,-0.542455,-0.92967,0.08564,-0.32687,2.16,2.57,2.71,2.77,3.15,3.03,3.02,3.83,3.2,3.92,4.03,3.92,3.77,3.83,3.7,2270,9.458333,61400.532333,259.433624,966.045166,-160.944687,1.23266580389728,2.46820895540475,2.12714641303829,22.998835,805.539917,162.254501,167.39798,1182.929443,-14.427946,"CRUZEXT"
34,17,3,20.581,4863.68,0.649391,-0.081604,0.689782,-0.309571,-0.93141,0.31757,-0.04166,4860.52,0.603523,-0.347243,0.470012,-0.542468,-0.92733,0.08578,-0.32408,2.16,2.57,2.71,2.77,3.15,3.03,3.02,3.83,3.19,3.92,4.03,3.92,3.77,3.83,3.7,2282,9.508333,61400.582333,259.382172,965.985352,-160.918304,1.2327762615633,2.46832244010089,2.12710011675054,22.97747,805.518738,162.254837,167.374603,1182.891235,-14.411139,"CRUZEXT"
35,17,3,20.586,4863.7,0.649408,-0.081647,0.689798,-0.309485,-0.93164,0.31482,-0.0418,4860.54,0.603501,-0.347229,0.47002,-0.542494,-0.92615,0.08554,-0.32628,2.16,2.57,2.71,2.77,3.15,3.03,3.02,3.83,3.2,3.92,4.03,3.92,3.77,3.83,3.71,2283,9.5125,61400.5865,259.378967,965.987183,-160.916748,1.23279908693176,2.46836059846731,2.12707455943683,22.973274,805.523376,162.255478,167.381363,1182.890259,-14.421959,"CRUZEXT"
36,17,3,20.607,4863.72,0.649372,-0.081609,0.689853,-0.309449,-0.93255,0.31724,-0.04081,4860.56,0.603669,-0.347272,0.469861,-0.542417,-0.9297,0.08383,-0.32711,2.16,2.57,2.71,2.77,3.15,3.03,3.02,3.83,3.2,3.92,4.03,3.92,3.77,3.83,3.71,2288,9.533333,61400.607333,259.365479,965.963745,-160.899902,1.2328115604687,2.46838943842984,2.12705190959024,22.96187,805.514954,162.255981,167.370926,1182.872314,-14.410109,"CRUZEXT"
37,17,3,20.612,4863.74,0.64935,-0.081564,0.689902,-0.309398,-0.93188,0.31581,-0.03934,4860.58,0.603693,-0.347241,0.469856,-0.542415,-0.92894,0.08517,-0.32764,2.16,2.57,2.71,2.77,3.15,3.03,3.02,3.83,3.2,3.92,4.04,3.92,3.77,3.83,3.71,2290,9.541667,61400.615667,259.370056,965.956177,-160.8965,1.23281277880867,2.46843957676615,2.1269982530814,22.95822,805.514038,162.261841,167.376083,1182.872803,-14.419765,"CRUZEXT"
38,17,3,20.664,4863.76,0.649374,-0.08152,0.689897,-0.309368,-0.93328,0.31771,-0.04199,4860.6,0.603636,-0.347264,0.469909,-0.542417,-0.92594,0.08925,-0.32373,2.16,2.57,2.71,2.77,3.15,3.03,3.02,3.83,3.2,3.92,4.03,3.92,3.77,3.83,3.71,2302,9.591667,61400.665667,259.330017,965.847046,-160.878372,1.233060173776,2.46875063914721,2.12683264416042,22.943407,805.497009,162.2621,167.401611,1182.815552,-14.441951,"CRUZEXT"
39,17,3,20.67,4863.78,0.649344,-0.081493,0.689951,-0.30932,-0.93237,0.31716,-0.04042,4860.62,0.603616,-0.347252,0.469929,-0.542431,-0.92486,0.08745,-0.32186,2.16,2.57,2.71,2.77,3.15,3.03,3.02,3.83,3.2,3.92,4.03,3.92,3.77,3.83,3.7,2304,9.6,61400.674,259.320251,965.826111,-160.88205,1.23314069126921,2.46880588043698,2.12682873275805,22.940664,805.493286,162.265366,167.412598,1182.804932,-14.446035,"CRUZEXT"
40,17,3,20.686,4863.8,0.649409,-0.081498,0.689914,-0.309265,-0.93328,0.31574,-0.03993,4860.64,0.603574,-0.347281,0.469932,-0.542455,-0.92599,0.08651,-0.32563,2.16,2.57,2.71,2.77,3.15,3.04,3.02,3.83,3.2,3.92,4.03,3.92,3.77,3.83,3.7,2307,9.6125,61400.6865,259.317291,965.801575,-160.884216,1.23315971626021,2.46883609195163,2.12680915304372,22.94021,805.480835,162.261139,167.416107,1182.782104,-14.455187,"CRUZEXT"
41,17,3,20.706,4863.82,0.649377,-0.081476,0.689951,-0.309254,-0.93169,0.31576,-0.04037,4860.66,0.603673,-0.347373,0.469801,-0.5424,-0.9273,0.08571,-0.326,2.16,2.57,2.71,2.77,3.15,3.03,3.02,3.83,3.2,3.92,4.03,3.92,3.77,3.83,3.71,2312,9.633333,61400.707333,259.308167,965.736267,-160.893402,1.23325816506999,2.46895779554468,2.12674547574944,22.926304,805.475708,162.256943,167.432358,1182.73877,-14.478747,"CRUZEXT"
42,17,3,20.711,4863.84,0.649344,-0.081456,0.689987,-0.309249,-0.93155,0.31702,-0.04068,4860.68,0.603636,-0.347428,0.469751,-0.54245,-0.92507,0.08536,-0.32558,2.16,2.57,2.71,2.77,3.15,3.03,3.02,3.83,3.2,3.92,4.03,3.92,3.77,3.83,3.71,2313,9.6375,61400.7115,259.306,965.724487,-160.895111,1.23331449938298,2.46900401311835,2.12673449720441,22.931744,805.46991,162.249756,167.445297,1182.734131,-14.483615,"CRUZEXT"
43,17,3,20.761,4863.86,0.649334,-0.081447,0.689984,-0.30928,-0.93263,0.31796,-0.04128,4860.7,0.603618,-0.347714,0.469606,-0.542411,-0.92346,0.08241,-0.32195,2.16,2.57,2.71,2.77,3.15,3.03,3.02,3.83,3.2,3.92,4.03,3.92,3.77,3.83,3.71,2325,9.6875,61400.7615,259.2341,965.492737,-160.878296,1.23381717656773,2.46959276475334,2.12644462479456,22.936111,805.457214,162.228882,167.505249,1182.603516,-14.535512,"CRUZEXT"
44,17,3,20.766,4863.88,0.649307,-0.081446,0.690003,-0.309293,-0.93284,0.3162,-0.04135,4860.72,0.603578,-0.347742,0.469655,-0.542395,-0.92688,0.08118,-0.32516,2.16,2.57,2.71,2.77,3.15,3.03,3.02,3.83,3.2,3.92,4.03,3.92,3.77,3.83,3.71,2327,9.695833,61400.769833,259.203247,965.43866,-160.882782,1.23399159298822,2.46975961254453,2.1263846612872,22.932781,805.453003,162.232147,167.517593,1182.584106,-14.550187,"CRUZEXT"
45,17,3,20.784,4863.9,0.649447,-0.081507,0.689906,-0.309201,-0.93213,0.31574,-0.04128,4860.74,0.603566,-0.347794,0.46971,-0.542328,-0.92685,0.08677,-0.32225,2.16,2.57,2.71,2.77,3.15,3.03,3.02,3.83,3.2,3.92,4.04,3.92,3.77,3.83,3.71,2331,9.7125,61400.7865,259.144806,965.320129,-160.895676,1.2343473745305,2.47010832703642,2.12625311223005,22.936522,805.444336,162.232391,167.548828,1182.534058,-14.588513,"CRUZEXT"
46,17,3,20.79,4863.92,0.649453,-0.081466,0.689919,-0.309171,-0.93187,0.31648,-0.03988,4860.76,0.603475,-0.348022,0.469521,-0.542447,-0.92442,0.08845,-0.32371,2.16,2.57,2.71,2.77,3.15,3.03,3.02,3.84,3.2,3.92,4.03,3.92,3.77,3.83,3.71,2332,9.716667,61400.790667,259.12619,965.288513,-160.899689,1.23443872278963,2.47018901972767,2.12622891905849,22.941759,805.441711,162.232559,167.553009,1182.519043,-14.596429,"CRUZEXT"
47,17,3,20.842,4863.94,0.649467,-0.081422,0.689928,-0.309132,-0.93368,0.31642,-0.04145,4860.78,0.603348,-0.348263,0.469301,-0.542624,-0.92697,0.08276,-0.32028,2.16,2.57,2.71,2.77,3.15,3.03,3.02,3.83,3.2,3.92,4.03,3.92,3.77,3.83,3.71,2345,9.770833,61400.844833,258.959534,964.912354,-160.963898,1.23546536767382,2.47131907698472,2.12571361734211,22.947678,805.441101,162.235809,167.644836,1182.362671,-14.765409,"CRUZEXT"
48,17,3,20.847,4863.96,0.649505,-0.081391,0.689956,-0.308997,-0.93382,0.31569,-0.03892,4860.8,0.603362,-0.348429,0.469178,-0.542608,-0.93012,0.07994,-0.32415,2.16,2.57,2.71,2.77,3.15,3.03,3.02,3.83,3.2,3.92,4.03,3.92,3.77,3.83,3.71,2346,9.775,61400.849,258.958069,964.892822,-160.970474,1.2354458424382,2.47134972081968,2.12566675485882,22.941401,805.44043,162.227524,167.637192,1182.350952,-14.781336,"CRUZEXT"
49,17,3,20.865,4863.98,0.649495,-0.081353,0.689984,-0.308967,-0.93246,0.31806,-0.04039,4860.82,0.603342,-0.348563,0.469119,-0.542596,-0.93368,0.08473,-0.33041,2.16,2.57,2.71,2.77,3.15,3.03,3.02,3.83,3.2,3.92,4.04,3.92,3.77,3.83,3.71,2350,9.791667,61400.865667,258.93866,964.824951,-160.977356,1.23556690226807,2.47155739752173,2.1255249916991,22.936989,805.451233,162.219254,167.648132,1182.322144,-14.819457,"CRUZEXT"
50,17,3,20.87,4864,0.649676,-0.081425,0.689836,-0.308897,-0.92977,0.3178,-0.04196,4860.84,0.603322,-0.348644,0.469056,-0.54262,-0.93536,0.08578,-0.334,2.16,2.57,2.71,2.77,3.15,3.03,3.02,3.83,3.2,3.92,4.03,3.92,3.77,3.83,3.71,2352,9.8,61400.874,258.935394,964.802185,-160.97728,1.23557258438954,2.47166315875008,2.12541395231495,22.939653,805.458313,162.215195,167.647369,1182.315186,-14.847197,"CRUZEXT"
51,17,3,20.903,4864.02,0.649636,-0.081417,0.689865,-0.308919,-0.93068,0.31663,-0.04128,4860.86,0.603385,-0.34862,0.468968,-0.542641,-0.93495,0.085,-0.32994,2.16,2.57,2.71,2.77,3.15,3.04,3.02,3.83,3.2,3.92,4.04,3.92,3.77,3.83,3.71,2359,9.829167,61400.903167,258.919617,964.765686,-160.980103,1.23547442088343,2.47181011450162,2.125186029339,22.943947,805.470032,162.197159,167.609375,1182.295654,-14.909397,"CRUZEXT"
52,17,3,20.929,4864.04,0.64962,-0.081379,0.689881,-0.308927,-0.93396,0.31702,-0.04133,4860.88,0.603432,-0.348517,0.468975,-0.542649,-0.93405,0.08306,-0.3269,2.16,2.57,2.71,2.77,3.15,3.03,3.02,3.83,3.2,3.92,4.03,3.92,3.77,3.83,3.71,2366,9.858333,61400.932333,258.931641,964.784119,-160.959763,1.23506683235385,2.47175603894517,2.12496167948245,22.943014,805.458801,162.167313,167.524597,1182.281006,-14.957942,"CRUZEXT"
53,17,3,20.934,4864.06,0.649718,-0.081337,0.689784,-0.308948,-0.93516,0.31785,-0.04286,4860.9,0.603542,-0.348313,0.469073,-0.542574,-0.93117,0.08191,-0.32767,2.16,2.57,2.71,2.77,3.15,3.04,3.02,3.83,3.2,3.92,4.03,3.92,3.77,3.83,3.71,2367,9.8625,61400.9365,258.93457,964.79303,-160.959518,1.23497681699248,2.47169859232642,2.12496158154646,22.939384,805.458984,162.167816,167.505585,1182.276123,-14.960337,"CRUZEXT"
54,17,3,20.963,4864.08,0.649694,-0.081303,0.68982,-0.308929,-0.93386,0.31634,-0.04121,4860.92,0.603634,-0.348043,0.469219,-0.542518,-0.93023,0.08217,-0.32608,2.16,2.57,2.71,2.77,3.16,3.03,3.02,3.83,3.2,3.92,4.03,3.92,3.77,3.83,3.71,2374,9.891667,61400.965667,258.918579,964.813171,-160.94957,1.23443604216349,2.47156046426191,2.12473554078667,22.927488,805.444519,162.137726,167.353149,1182.260132,-15.011999,"CRUZEXT"
55,17,3,20.989,4864.1,0.649716,-0.081308,0.689816,-0.308888,-0.93356,0.31656,-0.04161,4860.94,0.60371,-0.347769,0.469331,-0.542512,-0.92803,0.08285,-0.32312,2.16,2.57,2.71,2.77,3.15,3.03,3.02,3.83,3.2,3.92,4.03,3.92,3.77,3.83,3.71,2380,9.916667,61400.990667,258.844025,964.810669,-160.942688,1.2340281153576,2.47147902288235,2.12453990210978,22.910456,805.413818,162.119034,167.172318,1182.24231,-15.052143,"CRUZEXT"
56,17,3,20.994,4864.12,0.649652,-0.081298,0.689873,-0.308899,-0.93192,0.31609,-0.04039,4860.96,0.603743,-0.347589,0.4694,-0.542531,-0.92866,0.07942,-0.3219,2.16,2.57,2.71,2.77,3.15,3.03,3.02,3.83,3.2,3.92,4.03,3.92,3.77,3.83,3.7,2381,9.920833,61400.994833,258.830322,964.816162,-160.950317,1.23396365512277,2.47145294195382,2.12452333586119,22.911945,805.40332,162.112244,167.143188,1182.239868,-15.06599,"CRUZEXT"
57,17,3,21.044,4864.14,0.649573,-0.081282,0.689951,-0.308895,-0.93028,0.31616,-0.03978,4860.98,0.603786,-0.347332,0.469436,-0.542617,-0.93044,0.07788,-0.32078,2.16,2.57,2.71,2.77,3.15,3.04,3.02,3.84,3.2,3.92,4.03,3.92,3.77,3.83,3.7,2393,9.970833,61401.044833,258.497467,964.766541,-161.005341,1.23320996111835,2.47128992893613,2.12417457741183,22.821142,805.301941,162.07666,166.595703,1182.203125,-15.175841,"CRUZEXT"
58,17,3,21.049,4864.16,0.649555,-0.081238,0.689968,-0.308906,-0.93086,0.31578,-0.0433,4861,0.603759,-0.347311,0.469384,-0.542705,-0.92916,0.07983,-0.31914,2.16,2.57,2.71,2.77,3.15,3.03,3.02,3.84,3.2,3.92,4.04,3.92,3.77,3.83,3.71,2394,9.975,61401.049,258.455444,964.756836,-161.016571,1.23318382600782,2.4712709966405,2.12417692258754,22.810654,805.295288,162.070526,166.543884,1182.197144,-15.181831,"CRUZEXT"
59,17,3,21.065,4864.18,0.649449,-0.081206,0.690078,-0.308892,-0.93004,0.31531,-0.0422,4861.02,0.603708,-0.347193,0.469303,-0.542908,-0.92519,0.07762,-0.31838,2.16,2.57,2.71,2.77,3.15,3.03,3.02,3.83,3.2,3.92,4.03,3.92,3.77,3.83,3.71,2398,9.991667,61401.065667,258.244934,964.698425,-161.060303,1.23307016612438,2.47129435785941,2.12407202415609,22.769075,805.244751,162.0625,166.287125,1182.181763,-15.224173,"CRUZEXT"
60,17,3,21.086,4864.2,0.649353,-0.081188,0.690171,-0.308889,-0.93103,0.31721,-0.04121,4861.04,0.603577,-0.347174,0.469049,-0.543284,-0.9239,0.07697,-0.31691,2.16,2.57,2.71,2.77,3.15,3.03,3.02,3.83,3.2,3.92,4.03,3.92,3.77,3.84,3.7,2403,10.0125,61401.0865,257.920227,964.625732,-161.119293,1.233091646035,2.47123902698159,2.12414728968773,22.714052,805.178345,162.065247,165.950409,1182.141235,-15.237421,"CRUZEXT"
61,17,3,21.091,4864.22,0.649246,-0.081171,0.690274,-0.308889,-0.93049,0.31696,-0.04248,4861.06,0.603372,-0.347243,0.468647,-0.543814,-0.9311,0.07462,-0.32143,2.16,2.57,2.71,2.77,3.15,3.03,3.02,3.83,3.2,3.92,4.03,3.92,3.77,3.83,3.7,2405,10.020833,61401.094833,257.761292,964.593201,-161.139374,1.23318519379617,2.47128228900368,2.12416558390191,22.685637,805.151733,162.064667,165.811157,1182.127563,-15.245537,"CRUZEXT"
62,17,3,21.124,4864.24,0.649114,-0.081141,0.69041,-0.30887,-0.93058,0.31695,-0.04208,4861.08,0.603141,-0.34728,0.467993,-0.54461,-0.93187,0.05999,-0.32919,2.16,2.57,2.71,2.77,3.15,3.03,3.02,3.83,3.2,3.92,4.03,3.92,3.77,3.83,3.7,2412,10.05,61401.124,257.173615,964.508667,-161.210083,1.23336983215687,2.47133674196681,2.12423532674921,22.574776,805.050476,162.072311,165.254074,1182.094482,-15.271563,"CRUZEXT"
63,17,3,21.129,4864.26,0.649008,-0.081085,0.690529,-0.308842,-0.93112,0.31625,-0.04327,4861.1,0.602915,-0.347289,0.467099,-0.545621,-0.93384,0.05408,-0.33156,2.16,2.57,2.71,2.77,3.15,3.03,3.02,3.83,3.2,3.92,4.03,3.92,3.77,3.83,3.71,2414,10.058333,61401.132333,256.989197,964.485168,-161.227859,1.23351264629368,2.47141441437397,2.12425052417988,22.543139,805.020447,162.074417,165.102859,1182.09436,-15.279055,"CRUZEXT"
64,17,3,21.163,4864.28,0.648863,-0.081032,0.690692,-0.308796,-0.93035,0.31702,-0.04234,4861.12,0.602592,-0.347249,0.466251,-0.546727,-0.9289,0.07786,-0.33459,2.16,2.57,2.71,2.77,3.15,3.03,3.02,3.83,3.2,3.92,4.03,3.92,3.77,3.83,3.71,2422,10.091667,61401.165667,256.209076,964.437195,-161.330276,1.23393220264629,2.47158112026521,2.12436189599686,22.408445,804.881897,162.117645,164.425858,1182.091309,-15.344317,"CRUZEXT"
65,17,3,21.189,4864.3,0.648735,-0.080964,0.690832,-0.30877,-0.9304,0.3174,-0.04142,4861.14,0.602119,-0.347271,0.465365,-0.547988,-0.93248,0.09183,-0.33037,2.16,2.57,2.71,2.77,3.15,3.03,3.02,3.83,3.2,3.92,4.03,3.92,3.77,3.83,3.71,2428,10.116667,61401.190667,255.616013,964.497131,-161.433212,1.2339391869845,2.47125629678717,2.12472026992309,22.296194,804.779297,162.168472,163.836533,1182.090698,-15.365645,"CRUZEXT"
66,17,3,21.194,4864.32,0.648552,-0.080923,0.691036,-0.308709,-0.92873,0.31676,-0.04053,4861.16,0.601522,-0.347217,0.464708,-0.549234,-0.93766,0.10732,-0.32952,2.16,2.57,2.71,2.77,3.15,3.03,3.02,3.83,3.2,3.92,4.03,3.92,3.77,3.83,3.7,2429,10.120833,61401.194833,255.519562,964.517944,-161.450027,1.23391897547739,2.47118593890167,2.12478273767467,22.281584,804.759155,162.180984,163.735458,1182.097778,-15.368779,"CRUZEXT"
67,17,3,21.241,4864.34,0.648366,-0.080875,0.691252,-0.30863,-0.93107,0.3181,-0.04241,4861.18,0.600976,-0.346832,0.464378,-0.550353,-0.93776,0.10254,-0.34068,2.16,2.57,2.71,2.77,3.15,3.03,3.02,3.83,3.2,3.92,4.03,3.92,3.77,3.83,3.7,2441,10.170833,61401.244833,254.618317,965.095154,-161.787964,1.23278923935345,2.46905880009693,2.12630850854604,22.015173,804.547668,162.332291,162.522324,1182.344971,-15.321329,"CRUZEXT"
68,17,3,21.246,4864.36,0.648203,-0.080843,0.691427,-0.308587,-0.93201,0.31839,-0.03986,4861.2,0.600363,-0.346256,0.464341,-0.551415,-0.9318,0.10611,-0.33473,2.16,2.57,2.71,2.77,3.15,3.03,3.02,3.83,3.2,3.92,4.04,3.92,3.77,3.83,3.7,2442,10.175,61401.249,254.561249,965.160278,-161.823151,1.2326285244096,2.46880592254036,2.12647130120024,21.980453,804.525574,162.343307,162.419266,1182.375488,-15.311932,"CRUZEXT"
69,17,3,21.265,4864.38,0.647994,-0.080844,0.691619,-0.308596,-0.93244,0.31906,-0.04041,4861.22,0.599608,-0.345745,0.464427,-0.552485,-0.92362,0.10758,-0.34258,2.16,2.57,2.71,2.77,3.15,3.03,3.02,3.83,3.2,3.92,4.03,3.92,3.77,3.83,3.7,2446,10.191667,61401.265667,254.35025,965.436951,-161.967896,1.23185981966702,2.46779750008707,2.12703073399003,21.876627,804.460693,162.373428,161.985428,1182.527954,-15.290623,"CRUZEXT"
70,17,3,21.285,4864.4,0.647775,-0.080868,0.691795,-0.308655,-0.93066,0.31967,-0.03979,4861.24,0.598725,-0.345136,0.464745,-0.553554,-0.93509,0.11745,-0.34218,2.16,2.57,2.71,2.77,3.15,3.04,3.02,3.83,3.2,3.92,4.04,3.92,3.77,3.83,3.7,2451,10.2125,61401.2865,254.136734,965.912354,-162.203522,1.23077286770947,2.466222162239,2.12798281030185,21.730795,804.386658,162.411896,161.485016,1182.735107,-15.298255,"CRUZEXT"
71,17,3,21.29,4864.42,0.647486,-0.080957,0.692018,-0.308737,-0.9307,0.31977,-0.03981,4861.26,0.597692,-0.344337,0.465256,-0.554737,-0.93998,0.12219,-0.34382,2.16,2.57,2.71,2.77,3.16,3.03,3.02,3.83,3.2,3.92,4.03,3.92,3.77,3.83,3.7,2452,10.216667,61401.290667,254.106995,966.027344,-162.260025,1.23053632221585,2.46585864443093,2.12821226562689,21.703436,804.370178,162.414948,161.39827,1182.775391,-15.308493,"CRUZEXT"
72,17,3,21.338,4864.44,0.647182,-0.081077,0.692258,-0.308806,-0.93011,0.32078,-0.03748,4861.28,0.596432,-0.343298,0.466047,-0.556072,-0.95907,0.13572,-0.33058,2.16,2.57,2.71,2.77,3.15,3.03,3.02,3.83,3.2,3.92,4.03,3.92,3.77,3.83,3.7,2464,10.266667,61401.340667,254.114655,968.34021,-163.667587,1.22539331124234,2.45622939476585,2.1350523534917,21.385746,804.211365,162.491455,160.073715,1183.374634,-15.128074,"CRUZEXT"
73,17,3,21.343,4864.46,0.646886,-0.081189,0.692487,-0.308882,-0.93026,0.32033,-0.03868,4861.3,0.594479,-0.342079,0.467346,-0.557822,-0.95766,0.1652,-0.32342,2.16,2.57,2.71,2.77,3.15,3.03,3.02,3.83,3.2,3.92,4.03,3.92,3.77,3.83,3.7,2465,10.270833,61401.344833,254.11528,968.588074,-163.802414,1.22481393537656,2.45510934154298,2.13585816019311,21.365053,804.193359,162.497925,159.925949,1183.418579,-15.078585,"CRUZEXT"
74,17,3,21.364,4864.48,0.646558,-0.081261,0.692762,-0.308933,-0.93427,0.31616,-0.03687,4861.32,0.592187,-0.340068,0.469149,-0.559971,-0.9476,0.1665,-0.32872,2.16,2.57,2.71,2.77,3.16,3.03,3.02,3.83,3.2,3.92,4.03,3.92,3.77,3.83,3.7,2470,10.291667,61401.365667,254.180374,969.941589,-164.544144,1.22186400114067,2.44928375783311,2.1400838948553,21.237352,804.107361,162.517548,159.24675,1183.684204,-14.87152,"CRUZEXT"
75,17,3,21.369,4864.5,0.646245,-0.081366,0.693024,-0.308974,-0.9349,0.3137,-0.03571,4861.34,0.589548,-0.337221,0.471735,-0.562301,-0.92936,0.17125,-0.33109,2.16,2.57,2.71,2.77,3.15,3.03,3.02,3.83,3.2,3.92,4.03,3.92,3.77,3.83,3.7,2471,10.295833,61401.369833,254.205383,970.226074,-164.705994,1.22122081761575,2.44806898004233,2.14094303603206,21.216488,804.088135,162.521255,159.112289,1183.734497,-14.845636,"CRUZEXT"
76,17,3,21.419,4864.52,0.646204,-0.081348,0.693064,-0.308976,-0.93354,0.31897,-0.03242,4861.36,0.586333,-0.334152,0.474402,-0.565242,-0.92719,0.17672,-0.33229,2.16,2.57,2.71,2.77,3.15,3.03,3.02,3.83,3.2,3.92,4.03,3.92,3.77,3.83,3.7,2483,10.345833,61401.419833,254.450623,973.945923,-166.956192,1.2140879504153,2.43218327568982,2.15301746750558,20.98691,803.814697,162.595291,157.59491,1184.400391,-14.435199,"CRUZEXT"
77,17,3,21.424,4864.54,0.646203,-0.081322,0.693077,-0.308954,-0.93345,0.32021,-0.03148,4861.38,0.582538,-0.330943,0.477235,-0.568658,-0.93025,0.17637,-0.33083,2.16,2.57,2.71,2.77,3.15,3.03,3.02,3.83,3.2,3.92,4.03,3.92,3.77,3.83,3.7,2484,10.35,61401.424,254.46907,974.259216,-167.153305,1.21349808608826,2.43082612698683,2.15405720934038,20.966324,803.801819,162.605331,157.468185,1184.450684,-14.404307,"CRUZEXT"
78,17,3,21.444,4864.56,0.646326,-0.081267,0.692971,-0.308948,-0.9303,0.32195,-0.03111,4861.4,0.578148,-0.32766,0.480056,-0.572652,-0.93192,0.19528,-0.33498,2.16,2.57,2.71,2.77,3.15,3.03,3.02,3.83,3.2,3.92,4.03,3.92,3.77,3.83,3.7,2489,10.370833,61401.444833,254.519882,976.003235,-168.240891,1.2105179159916,2.42328025108135,2.16003573869466,20.911085,803.686707,162.645828,156.80983,1184.685059,-14.212698,"CRUZEXT"
79,17,3,21.45,4864.58,0.646389,-0.081151,0.692989,-0.308807,-0.92944,0.31876,-0.02773,4861.42,0.573096,-0.324323,0.482956,-0.577173,-0.93823,0.20879,-0.32136,2.16,2.58,2.71,2.77,3.16,3.03,3.02,3.83,3.2,3.92,4.04,3.92,3.77,3.83,3.7,2491,10.379167,61401.453167,254.504944,976.705139,-168.680679,1.20950757183364,2.42034754555391,2.16245759072735,20.886379,803.645081,162.666,156.561066,1184.79126,-14.139344,"CRUZEXT"
80,17,3,21.502,4864.6,0.646437,-0.081091,0.693047,-0.308593,-0.9315,0.31796,-0.02893,4861.44,0.567741,-0.320677,0.486037,-0.581897,-0.93033,0.20218,-0.31825,2.16,2.58,2.71,2.77,3.15,3.03,3.02,3.83,3.2,3.92,4.03,3.92,3.77,3.83,3.7,2503,10.429167,61401.503167,254.433243,981.10907,-171.667648,1.2038466882723,2.40151393901802,2.17850461693974,20.765121,803.467468,162.811066,155.147125,1185.458496,-13.652298,"CRUZEXT"
81,17,3,21.507,4864.62,0.646479,-0.080962,0.693092,-0.308436,-0.92665,0.32073,-0.02577,4861.46,0.562019,-0.317309,0.488747,-0.587005,-0.93159,0.22759,-0.31559,2.16,2.58,2.71,2.77,3.15,3.03,3.02,3.83,3.2,3.92,4.04,3.92,3.77,3.83,3.7,2504,10.433333,61401.507333,254.39415,981.545776,-171.938858,1.20342141623418,2.39972822380661,2.18009693526999,20.751101,803.45282,162.821381,155.024643,1185.507324,-13.604102,"CRUZEXT"
82,17,3,21.524,4864.64,0.646532,-0.08083,0.693121,-0.308297,-0.92829,0.32265,-0.0255,4861.48,0.55613,-0.313905,0.491636,-0.592011,-0.91898,0.22512,-0.30055,2.16,2.58,2.71,2.77,3.15,3.03,3.02,3.83,3.19,3.92,4.03,3.92,3.77,3.83,3.7,2508,10.45,61401.524,254.250168,983.101868,-173.035477,1.20184408026639,2.39287180669079,2.18623593115367,20.722591,803.396301,162.866592,154.516876,1185.688843,-13.380322,"CRUZEXT"
83,17,3,21.529,4864.66,0.646485,-0.080677,0.693221,-0.308208,-0.93229,0.32322,-0.02403,4861.5,0.550233,-0.31046,0.49474,-0.596734,-0.93087,0.24679,-0.31015,2.16,2.58,2.71,2.77,3.15,3.03,3.02,3.83,3.2,3.92,4.03,3.92,3.77,3.83,3.7,2510,10.458333,61401.532333,254.197769,983.846191,-173.569168,1.20096365749419,2.38947968379348,2.18919318920698,20.707069,803.363464,162.887955,154.241104,1185.786011,-13.252851,"CRUZEXT"
84,17,3,21.565,4864.68,0.646504,-0.080575,0.693265,-0.308097,-0.93338,0.3239,-0.02492,4861.52,0.544084,-0.307043,0.497828,-0.601552,-0.90908,0.2492,-0.3182,2.16,2.58,2.71,2.77,3.15,3.03,3.02,3.83,3.2,3.92,4.03,3.92,3.77,3.83,3.7,2518,10.491667,61401.565667,253.549698,987.473206,-175.85405,1.19864027021801,2.37469098387884,2.20309822427629,20.633694,803.218567,162.983276,153.236404,1186.117554,-12.813777,"CRUZEXT"
85,17,3,21.57,4864.7,0.646515,-0.080505,0.693312,-0.307987,-0.93614,0.32347,-0.02665,4861.54,0.537895,-0.303699,0.500811,-0.60632,-0.92004,0.26564,-0.33079,2.16,2.58,2.71,2.77,3.15,3.03,3.02,3.83,3.2,3.92,4.04,3.92,3.77,3.83,3.7,2520,10.5,61401.574,253.404373,988.341797,-176.400742,1.19802924131181,2.37100924200962,2.20651930795173,20.614862,803.172546,163.00354,152.977249,1186.194946,-12.670503,"CRUZEXT"
86,17,3,21.622,4864.72,0.646598,-0.080503,0.693279,-0.307887,-0.93344,0.32321,-0.0242,4861.56,0.531846,-0.300261,0.50367,-0.610983,-0.90956,0.27904,-0.32572,2.16,2.58,2.71,2.77,3.15,3.03,3.02,3.83,3.2,3.92,4.04,3.92,3.77,3.83,3.7,2532,10.55,61401.624,252.616577,993.558594,-179.648575,1.1943441072315,2.34936981665899,2.22641979067239,20.490023,802.985596,163.116577,151.485153,1186.748169,-11.935841,"CRUZEXT"
87,17,3,21.627,4864.74,0.646697,-0.080475,0.693254,-0.307743,-0.93171,0.32166,-0.02544,4861.58,0.526136,-0.296776,0.506385,-0.615369,-0.89413,0.29431,-0.31541,2.16,2.58,2.71,2.77,3.16,3.03,3.02,3.83,3.2,3.92,4.03,3.92,3.77,3.83,3.7,2533,10.554167,61401.628167,252.573822,993.974976,-179.909958,1.19403123684122,2.34765484000144,2.22797193618473,20.476601,802.973633,163.116943,151.383453,1186.788208,-11.893988,"CRUZEXT"
88,17,3,21.645,4864.76,0.646782,-0.080506,0.693231,-0.307608,-0.93283,0.31832,-0.02534,4861.6,0.520283,-0.293283,0.509396,-0.619521,-0.86755,0.31454,-0.30451,2.16,2.58,2.71,2.77,3.15,3.03,3.02,3.83,3.2,3.92,4.04,3.92,3.77,3.83,3.7,2538,10.575,61401.649,252.26181,996.060608,-181.23053,1.19268923161873,2.33897408377805,2.23597599973535,20.400803,802.910889,163.139099,150.827774,1186.976807,-11.643329,"CRUZEXT"
89,17,3,21.65,4864.78,0.646824,-0.080562,0.693211,-0.30755,-0.93025,0.31764,-0.02504,4861.62,0.514442,-0.289941,0.512414,-0.623471,-0.8607,0.30483,-0.31079,2.16,2.58,2.71,2.77,3.15,3.03,3.02,3.83,3.2,3.92,4.03,3.92,3.77,3.83,3.7,2539,10.579167,61401.653167,252.227219,996.473328,-181.485062,1.1923094914364,2.33722280557655,2.23750899903702,20.382483,802.903137,163.141998,150.710114,1187.01709,-11.589895,"CRUZEXT"
90,17,3,21.701,4864.8,0.646674,-0.080695,0.69337,-0.307473,-0.92932,0.31796,-0.02182,4861.64,0.508633,-0.287768,0.515262,-0.626887,-0.81055,0.51134,-0.31961,2.16,2.58,2.71,2.77,3.15,3.03,3.02,3.83,3.2,3.92,4.03,3.92,3.77,3.83,3.7,2551,10.629167,61401.703167,250.784698,1000.468384,-185.126205,1.19332634476537,2.31957681568491,2.25627199182501,20.211767,802.784363,163.144623,149.583496,1187.386353,-11.30689,"CRUZEXT"
91,17,3,21.706,4864.82,0.64669,-0.080785,0.693363,-0.30743,-0.93243,0.31906,-0.02302,4861.66,0.501903,-0.285848,0.51671,-0.631977,-0.91745,0.29525,-0.28556,2.16,2.58,2.71,2.77,3.16,3.03,3.02,3.83,3.2,3.92,4.03,3.93,3.77,3.83,3.7,2552,10.633333,61401.707333,250.658783,1000.798096,-185.448044,1.19342277186439,2.31808725993027,2.25785446043912,20.200266,802.766052,163.145721,149.488083,1187.405396,-11.30272,"CRUZEXT"
92,17,3,21.725,4864.84,0.646687,-0.080862,0.693368,-0.307405,-0.9367,0.31845,-0.02325,4861.68,0.495028,-0.284511,0.516733,-0.637955,-0.84044,0.32377,-0.28324,2.16,2.58,2.71,2.77,3.15,3.03,3.02,3.83,3.2,3.92,4.04,3.92,3.77,3.83,3.7,2557,10.654167,61401.728167,250.145828,1002.351135,-186.942932,1.19369742148152,2.31097155303288,2.26526594520501,20.170099,802.698608,163.152756,149.083817,1187.449951,-11.29624,"CRUZEXT"
93,17,3,21.73,4864.86,0.646533,-0.080994,0.69353,-0.30733,-0.93579,0.31841,-0.02208,4861.7,0.488748,-0.282341,0.518164,-0.642585,-0.80899,0.3479,-0.27476,2.16,2.58,2.71,2.77,3.15,3.03,3.02,3.83,3.2,3.92,4.03,3.92,3.77,3.83,3.7,2558,10.658333,61401.732333,250.064316,1002.641541,-187.267624,1.19372254797091,2.30951504075577,2.26675771384544,20.159449,802.695007,163.152969,149.003876,1187.453857,-11.298098,"CRUZEXT"
94,17,3,21.779,4864.88,0.646554,-0.081032,0.693486,-0.307374,-0.93382,0.31686,-0.02138,4861.72,0.482058,-0.280066,0.520738,-0.646541,-0.81799,0.39436,-0.28221,2.16,2.58,2.71,2.77,3.16,3.03,3.02,3.83,3.2,3.92,4.04,3.92,3.77,3.83,3.7,2570,10.708333,61401.782333,246.821548,1003.499512,-194.924103,1.20749971635807,2.29327838982543,2.29249347969683,20.059347,802.540405,163.161209,148.028976,1187.33252,-11.254847,"CRUZEXT"
95,17,3,21.784,4864.9,0.646429,-0.081146,0.693614,-0.307319,-0.93347,0.31747,-0.01985,4861.74,0.475417,-0.277712,0.523507,-0.650227,-0.85261,0.41424,-0.30305,2.16,2.58,2.71,2.77,3.15,3.03,3.02,3.83,3.2,3.92,4.03,3.92,3.77,3.83,3.71,2571,10.7125,61401.7865,246.812943,1003.49115,-194.909912,1.20726127672907,2.29325185694522,2.29236027648279,20.052753,802.533813,163.156143,147.950546,1187.333252,-11.253844,"CRUZEXT"
96,17,3,21.804,4864.92,0.646465,-0.081133,0.693552,-0.307387,-0.93213,0.32272,-0.01613,4861.76,0.4689,-0.275275,0.526347,-0.653693,-0.8761,0.43952,-0.32042,2.16,2.58,2.71,2.77,3.15,3.03,3.02,3.83,3.2,3.92,4.04,3.92,3.77,3.83,3.71,2576,10.733333,61401.807333,246.812943,1003.49115,-194.909912,1.20606313306339,2.29280509977769,2.29200309197948,20.011753,802.488037,163.151688,147.589096,1187.333008,-11.235542,"CRUZEXT"
97,17,3,21.809,4864.94,0.646518,-0.081092,0.693487,-0.307431,-0.92878,0.32183,-0.01648,4861.78,0.462446,-0.272689,0.528729,-0.657442,-0.86332,0.44397,-0.31056,2.16,2.57,2.71,2.77,3.15,3.03,3.02,3.83,3.2,3.92,4.03,3.92,3.77,3.83,3.7,2577,10.7375,61401.8115,246.812943,1003.49115,-194.909912,1.20582298227152,2.29271786236472,2.29192892042612,19.998409,802.486572,163.155136,147.514084,1187.338135,-11.227719,"CRUZEXT"
98,17,3,21.86,4864.96,0.646388,-0.081039,0.693614,-0.307433,-0.93028,0.32281,-0.01547,4861.8,0.455576,-0.269924,0.531099,-0.661457,-0.82427,0.46249,-0.29098,2.16,2.57,2.71,2.77,3.15,3.03,3.02,3.83,3.2,3.92,4.04,3.92,3.77,3.83,3.71,2589,10.7875,61401.8615,246.812943,1003.49115,-194.909912,1.20320310164107,2.2917929634019,2.29108711037942,19.921789,802.382263,163.168594,146.712372,1187.367554,-11.181238,"CRUZEXT"
99,17,3,21.865,4864.98,0.646424,-0.080973,0.693605,-0.307395,-0.92957,0.32251,-0.0159,4861.82,0.448292,-0.267487,0.533396,-0.665563,-0.81576,0.48028,-0.27768,2.16,2.57,2.71,2.77,3.15,3.03,3.02,3.83,3.2,3.92,4.03,3.92,3.77,3.83,3.7,2590,10.791667,61401.865667,246.812943,1003.49115,-194.909912,1.2029707313595,2.29169521383627,2.2910276484243,19.91712,802.374451,163.171875,146.645752,1187.358521,-11.182276,"CRUZEXT"
100,17,3,21.885,4865,0.646325,-0.080812,0.693758,-0.3073,-0.93004,0.3223,-0.01855,4861.84,0.440813,-0.265152,0.535755,-0.669586,-0.83402,0.4936,-0.27042,2.16,2.57,2.71,2.77,3.16,3.03,3.02,3.83,3.2,3.92,4.04,3.92,3.77,3.83,3.71,2595,10.8125,61401.8865,246.812943,1003.49115,-194.909912,1.20192360050406,2.29126935804006,2.2907440158139,19.890903,802.338196,163.161636,146.338058,1187.334473,-11.176627,"CRUZEXT"
101,17,3,21.89,4865.02,0.646413,-0.080646,0.693764,-0.307145,-0.93467,0.32324,-0.01657,4861.86,0.433122,-0.263008,0.538217,-0.673465,-0.84356,0.48661,-0.27963,2.16,2.57,2.71,2.77,3.15,3.03,3.02,3.83,3.2,3.92,4.03,3.92,3.77,3.83,3.71,2596,10.816667,61401.890667,246.812943,1003.49115,-194.909912,1.20174542922361,2.29118952619575,2.29070295798525,19.892019,802.327393,163.156372,146.283676,1187.33252,-11.170472,"CRUZEXT"
102,17,3,21.941,4865.04,0.646507,-0.080506,0.693743,-0.307031,-0.93534,0.32244,-0.01468,4861.88,0.425411,-0.26045,0.541258,-0.676928,-0.83262,0.48952,-0.27227,2.16,2.57,2.71,2.77,3.15,3.03,3.02,3.83,3.2,3.92,4.04,3.92,3.77,3.83,3.7,2609,10.870833,61401.944833,246.812943,1003.49115,-194.909912,1.1994518686127,2.29021540522564,2.29011647712689,19.895061,802.296387,163.051865,145.523911,1187.426025,-10.995809,"CRUZEXT"
103,17,3,21.946,4865.06,0.646447,-0.080342,0.693863,-0.30693,-0.93187,0.32377,-0.01507,4861.9,0.418064,-0.257917,0.544203,-0.680106,-0.80455,0.49172,-0.26568,2.16,2.57,2.71,2.77,3.15,3.03,3.02,3.83,3.2,3.92,4.03,3.92,3.77,3.83,3.7,2610,10.875,61401.949,246.812943,1003.49115,-194.909912,1.19928358014914,2.29010521710628,2.2901118357194,19.893486,802.294983,163.043457,145.464432,1187.431396,-10.968276,"CRUZEXT"
104,17,3,21.964,4865.08,0.64656,-0.080119,0.693864,-0.306749,-0.92737,0.32532,-0.01236,4861.92,0.410507,-0.255603,0.547192,-0.683178,-0.80369,0.53235,-0.27236,2.16,2.57,2.71,2.77,3.15,3.03,3.02,3.83,3.2,3.92,4.04,3.92,3.77,3.83,3.7,2614,10.891667,61401.965667,246.812943,1003.49115,-194.909912,1.19847527323208,2.28969808185446,2.28996681422363,19.921535,802.293152,163.037354,145.189697,1187.462646,-10.881929,"CRUZEXT"
105,17,3,21.969,4865.1,0.646678,-0.079874,0.693901,-0.30648,-0.9311,0.32143,-0.01085,4861.94,0.402739,-0.253235,0.550307,-0.686174,-0.82307,0.54958,-0.28748,2.16,2.57,2.71,2.77,3.15,3.03,3.02,3.83,3.2,3.92,4.03,3.92,3.77,3.83,3.71,2615,10.895833,61401.969833,246.812943,1003.49115,-194.909912,1.19825392150514,2.28961633747422,2.28989717724253,19.921059,802.293701,163.033737,145.114639,1187.477051,-10.864965,"CRUZEXT"
106,17,3,22.023,4865.12,0.646896,-0.079589,0.693855,-0.306196,-0.93405,0.31831,-0.00814,4861.96,0.395236,-0.250964,0.552985,-0.689213,-0.8171,0.54623,-0.28557,2.16,2.57,2.71,2.77,3.15,3.03,3.02,3.83,3.2,3.92,4.03,3.92,3.77,3.83,3.71,2628,10.95,61402.024,246.812943,1003.49115,-194.909912,1.19545652476735,2.28839672339091,2.28919711379394,20.004389,802.257202,163.033203,144.098648,1187.737793,-10.494373,"CRUZEXT"
107,17,3,22.027,4865.14,0.647128,-0.079308,0.693765,-0.305984,-0.93534,0.31946,-0.01107,4861.98,0.387758,-0.248825,0.555365,-0.692315,-0.77727,0.53591,-0.27802,2.16,2.57,2.71,2.77,3.16,3.03,3.02,3.83,3.2,3.92,4.03,3.92,3.77,3.83,3.7,2629,10.954167,61402.028167,246.812943,1003.49115,-194.909912,1.19517430497234,2.28825112984314,2.2891483602599,20.001833,802.256287,163.03215,143.997375,1187.756714,-10.45495,"CRUZEXT"
108,17,3,22.045,4865.16,0.647217,-0.079062,0.693809,-0.305759,-0.93396,0.3242,-0.0091,4862,0.380242,-0.2468,0.557749,-0.695286,-0.77926,0.55251,-0.28878,2.16,2.57,2.71,2.77,3.15,3.03,3.02,3.83,3.2,3.92,4.03,3.92,3.77,3.83,3.7,2634,10.975,61402.049,246.812943,1003.49115,-194.909912,1.19384739331421,2.28769123444797,2.28879287639741,20.013765,802.247803,163.035294,143.516937,1187.878662,-10.289456,"CRUZEXT"
109,17,3,22.05,4865.18,0.64739,-0.078805,0.693774,-0.305539,-0.93039,0.32814,-0.0095,4862.02,0.373023,-0.244964,0.560086,-0.697961,-0.806,0.54925,-0.29497,2.16,2.57,2.71,2.77,3.15,3.03,3.02,3.83,3.2,3.92,4.03,3.92,3.77,3.83,3.7,2635,10.979167,61402.053167,246.812943,1003.49115,-194.909912,1.19358242068692,2.2875691197874,2.28873186962684,20.020777,802.242798,163.035065,143.416275,1187.909058,-10.246044,"CRUZEXT"
110,17,3,22.098,4865.2,0.647463,-0.078609,0.693807,-0.305358,-0.93094,0.32584,-0.01053,4862.04,0.366236,-0.24285,0.562279,-0.700527,-0.77253,0.54757,-0.28326,2.16,2.57,2.71,2.77,3.15,3.03,3.02,3.83,3.2,3.92,4.03,3.92,3.77,3.83,3.7,2646,11.025,61402.099,246.812943,1003.49115,-194.909912,1.19075888833268,2.28633172672485,2.28801123905945,20.014641,802.190369,163.053833,142.326492,1188.271851,-9.772429,"CRUZEXT"
111,17,3,22.105,4865.22,0.647625,-0.078478,0.693736,-0.305211,-0.92925,0.32612,-0.01296,4862.06,0.359381,-0.240293,0.56478,-0.702943,-0.68991,0.56506,-0.2823,2.16,2.57,2.71,2.77,3.15,3.03,3.02,3.83,3.2,3.92,4.04,3.92,3.77,3.83,3.7,2648,11.033333,61402.107333,246.812943,1003.49115,-194.909912,1.19028179451187,2.28608664423494,2.28792424504314,20.015837,802.176636,163.066696,142.140472,1188.327881,-9.682531,"CRUZEXT"
112,17,3,22.125,4865.24,0.647777,-0.078379,0.69367,-0.305063,-0.93058,0.32445,-0.01259,4862.08,0.352797,-0.238003,0.56734,-0.704992,-0.7206,0.59619,-0.2402,2.16,2.57,2.71,2.77,3.15,3.03,3.02,3.83,3.2,3.92,4.03,3.92,3.77,3.83,3.7,2653,11.054167,61402.128167,246.812943,1003.49115,-194.909912,1.18909903716129,2.28548228935614,2.28770383861036,20.015736,802.117249,163.124237,141.685028,1188.456177,-9.471786,"CRUZEXT"
113,17,3,22.13,4865.26,0.647783,-0.078282,0.693734,-0.30493,-0.93087,0.32272,-0.01128,4862.1,0.346345,-0.235428,0.570162,-0.706777,-0.72273,0.63323,-0.22644,2.16,2.57,2.71,2.77,3.15,3.03,3.02,3.83,3.2,3.92,4.03,3.92,3.77,3.83,3.7,2654,11.058333,61402.132333,246.812943,1003.49115,-194.909912,1.18884023722292,2.28532642944921,2.28767892863477,20.009499,802.106079,163.141998,141.588974,1188.472656,-9.427246,"CRUZEXT"
114,17,3,22.181,4865.28,0.647937,-0.078215,0.69363,-0.304858,-0.93255,0.32138,-0.01364,4862.12,0.339954,-0.232944,0.572963,-0.708436,-0.71927,0.65112,-0.22016,2.16,2.57,2.71,2.77,3.15,3.03,3.02,3.83,3.2,3.92,4.03,3.92,3.77,3.83,3.7,2666,11.108333,61402.182333,246.812943,1003.49115,-194.909912,1.18589296560736,2.2838608603705,2.28707877910723,19.929848,801.979248,163.227585,140.532211,1188.656738,-9.05634,"CRUZEXT"
115,17,3,22.187,4865.3,0.647862,-0.078177,0.693771,-0.304705,-0.93283,0.32131,-0.01297,4862.14,0.333516,-0.230658,0.575471,-0.710209,-0.71158,0.64764,-0.22604,2.16,2.57,2.71,2.77,3.15,3.03,3.02,3.83,3.2,3.92,4.04,3.92,3.77,3.83,3.71,2668,11.116667,61402.190667,246.812943,1003.49115,-194.909912,1.18537514296019,2.28365276159622,2.28692260958476,19.915045,801.960449,163.238022,140.35434,1188.685303,-9.016286,"CRUZEXT"
116,17,3,22.205,4865.32,0.647933,-0.078207,0.693703,-0.3047,-0.92902,0.32357,-0.01275,4862.16,0.327407,-0.228231,0.577959,-0.711814,-0.70201,0.6548,-0.2357,2.16,2.57,2.71,2.77,3.15,3.03,3.02,3.83,3.2,3.92,4.03,3.92,3.77,3.83,3.71,2672,11.133333,61402.207333,246.812943,1003.49115,-194.909912,1.18431551950726,2.28317149355114,2.28665714780952,19.879492,801.922424,163.26683,139.987747,1188.73584,-8.918724,"CRUZEXT"
117,17,3,22.21,4865.34,0.647945,-0.078309,0.693663,-0.304741,-0.92604,0.32753,-0.01064,4862.18,0.321108,-0.225647,0.580159,-0.713715,-0.69685,0.65894,-0.23553,2.16,2.57,2.71,2.77,3.15,3.03,3.02,3.83,3.2,3.92,4.04,3.92,3.77,3.83,3.7,2673,11.1375,61402.2115,246.812943,1003.49115,-194.909912,1.18402704730355,2.28306448210062,2.28656059716829,19.866747,801.918213,163.271469,139.891663,1188.748169,-8.903946,"CRUZEXT"
118,17,3,22.261,4865.36,0.647544,-0.078328,0.693972,-0.304886,-0.9266,0.32718,-0.01085,4862.2,0.314881,-0.222873,0.582337,-0.715584,-0.68893,0.67367,-0.22846,2.16,2.57,2.71,2.77,3.15,3.03,3.02,3.83,3.2,3.92,4.03,3.93,3.77,3.83,3.7,2685,11.1875,61402.2615,246.812943,1003.49115,-194.909912,1.18071093334839,2.28171185146903,2.28556400605077,19.752708,801.807556,163.337082,138.744278,1188.933838,-8.63904,"CRUZEXT"
119,17,3,22.266,4865.38,0.647619,-0.078353,0.693917,-0.304845,-0.93025,0.32336,-0.00975,4862.22,0.308706,-0.219914,0.584656,-0.717298,-0.6793,0.68992,-0.22105,2.16,2.57,2.71,2.77,3.16,3.03,3.02,3.83,3.2,3.92,4.03,3.92,3.77,3.83,3.7,2687,11.195833,61402.269833,246.812943,1003.49115,-194.909912,1.18022259752263,2.28152622106673,2.2854022957989,19.720242,801.787048,163.346695,138.569168,1188.973999,-8.593251,"CRUZEXT"
120,17,3,22.284,4865.4,0.64752,-0.078343,0.694075,-0.304697,-0.93037,0.31982,-0.00879,4862.24,0.302524,-0.216995,0.587308,-0.718653,-0.67228,0.70035,-0.21664,2.16,2.57,2.71,2.77,3.15,3.03,3.02,3.83,3.2,3.92,4.03,3.92,3.77,3.83,3.7,2691,11.2125,61402.2865,246.812943,1003.49115,-194.909912,1.17937590259698,2.28106961330775,2.28525565789547,19.655251,801.748779,163.369019,138.267319,1189.011108,-8.488569,"CRUZEXT"
121,17,3,22.291,4865.42,0.647618,-0.078307,0.69402,-0.304624,-0.93134,0.32176,-0.00661,4862.26,0.296408,-0.214005,0.590234,-0.7197,-0.65409,0.70588,-0.21422,2.16,2.57,2.71,2.77,3.15,3.03,3.02,3.83,3.2,3.92,4.03,3.92,3.77,3.83,3.71,2693,11.220833,61402.294833,246.812943,1003.49115,-194.909912,1.17891745919531,2.28081096622969,2.28518720517424,19.619192,801.719116,163.380951,138.116638,1189.006714,-8.451614,"CRUZEXT"
122,17,3,22.341,4865.44,0.647724,-0.078296,0.693936,-0.304592,-0.93173,0.32478,-0.0048,4862.28,0.28981,-0.211001,0.593396,-0.720673,-0.6445,0.71912,-0.22351,2.16,2.57,2.71,2.77,3.15,3.03,3.02,3.83,3.2,3.92,4.03,3.92,3.77,3.83,3.71,2705,11.270833,61402.344833,246.812943,1003.49115,-194.909912,1.17615865355159,2.27941443488957,2.28460878103096,19.440462,801.587463,163.482666,137.171051,1189.078125,-8.200757,"CRUZEXT"
123,17,3,22.346,4865.46,0.647559,-0.078204,0.694127,-0.304531,-0.92995,0.32574,-0.00568,4862.3,0.283332,-0.208044,0.597006,-0.721127,-0.64096,0.73007,-0.22137,2.16,2.57,2.71,2.77,3.15,3.03,3.02,3.83,3.2,3.92,4.03,3.92,3.77,3.83,3.7,2706,11.275,61402.349,246.812943,1003.49115,-194.909912,1.17592631350418,2.27927405946319,2.28458226725565,19.422003,801.588501,163.49472,137.088455,1189.083984,-8.169993,"CRUZEXT"
124,17,3,22.365,4865.48,0.647682,-0.078055,0.69408,-0.304414,-0.92805,0.32535,-0.00701,4862.32,0.277183,-0.205014,0.600632,-0.721373,-0.63414,0.73866,-0.20527,2.16,2.57,2.71,2.77,3.15,3.03,3.02,3.83,3.2,3.92,4.04,3.92,3.77,3.83,3.7,2710,11.291667,61402.365667,246.812943,1003.49115,-194.909912,1.17504740929379,2.27879844895087,2.28442590633878,19.352856,801.563354,163.537933,136.766571,1189.133667,-8.049989,"CRUZEXT"
125,17,3,22.385,4865.5,0.647695,-0.077885,0.694187,-0.304185,-0.9295,0.3223,-0.00586,4862.34,0.271024,-0.202155,0.603674,-0.721981,-0.62601,0.7455,-0.19359,2.16,2.57,2.71,2.77,3.15,3.03,3.02,3.83,3.2,3.92,4.04,3.92,3.77,3.83,3.7,2715,11.3125,61402.3865,246.812943,1003.49115,-194.909912,1.17383732081785,2.27808825969384,2.28426396383829,19.344326,801.275879,163.399292,136.318192,1189.197632,-7.865348,"CRUZEXT"
126,17,3,22.39,4865.52,0.647848,-0.077695,0.694144,-0.304008,-0.92887,0.32176,-0.00731,4862.36,0.265038,-0.199492,0.606128,-0.722888,-0.61537,0.75092,-0.1864,2.16,2.57,2.71,2.77,3.15,3.03,3.02,3.83,3.2,3.92,4.03,3.92,3.77,3.83,3.71,2716,11.316667,61402.390667,246.812943,1003.49115,-194.909912,1.17362572109372,2.27798319745082,2.2842163283689,19.261887,801.524963,163.591095,136.23764,1189.216431,-7.833715,"CRUZEXT"
127,17,3,22.439,4865.54,0.647999,-0.077496,0.694102,-0.303832,-0.92766,0.32615,-0.00675,4862.38,0.258928,-0.197035,0.608121,-0.724101,-0.59204,0.75565,-0.177,2.16,2.57,2.71,2.77,3.15,3.03,3.02,3.83,3.2,3.92,4.03,3.92,3.77,3.83,3.7,2728,11.366667,61402.440667,246.812943,1003.49115,-194.909912,1.17120307640242,2.27666886202265,2.28377735201152,19.085396,801.362549,163.647629,135.330933,1189.378174,-7.477373,"CRUZEXT"
128,17,3,22.444,4865.56,0.647956,-0.077289,0.694233,-0.303677,-0.92859,0.32985,-0.00452,4862.4,0.252938,-0.194862,0.609732,-0.72545,-0.58559,0.76447,-0.1728,2.16,2.57,2.71,2.77,3.15,3.03,3.02,3.83,3.2,3.92,4.03,3.92,3.77,3.83,3.71,2729,11.370833,61402.444833,246.812943,1003.49115,-194.909912,1.17099899863257,2.27657302612134,2.28372511978827,19.071112,801.354553,163.648865,135.260712,1189.384521,-7.461219,"CRUZEXT"
129,17,3,22.463,4865.58,0.64811,-0.077078,0.694207,-0.303463,-0.93309,0.32664,-0.00457,4862.42,0.247203,-0.192784,0.611239,-0.726713,-0.58589,0.77511,-0.17925,2.16,2.57,2.71,2.77,3.15,3.03,3.02,3.83,3.2,3.92,4.03,3.92,3.77,3.83,3.71,2734,11.391667,61402.465667,246.812943,1003.49115,-194.909912,1.17007138379185,2.27600085249953,2.2836231639785,18.99835,801.32019,163.687927,134.910919,1189.434082,-7.307367,"CRUZEXT"
130,17,3,22.488,4865.6,0.648155,-0.076843,0.694303,-0.303207,-0.93394,0.3237,-0.00136,4862.44,0.240978,-0.190376,0.612965,-0.727984,-0.575,0.76463,-0.19549,2.16,2.57,2.71,2.77,3.15,3.03,3.02,3.83,3.2,3.92,4.03,3.92,3.77,3.83,3.71,2740,11.416667,61402.490667,246.812943,1003.49115,-194.909912,1.16888013532301,2.27527764867038,2.28347874233655,18.925674,801.271912,163.71019,134.441391,1189.532593,-7.079707,"CRUZEXT"
131,17,3,22.493,4865.62,0.648323,-0.076627,0.694254,-0.303013,-0.92993,0.32267,-0.00089,4862.46,0.235101,-0.188031,0.614889,-0.728892,-0.57131,0.79531,-0.19599,2.16,2.57,2.71,2.77,3.15,3.03,3.02,3.83,3.2,3.92,4.03,3.92,3.77,3.83,3.7,2741,11.420833,61402.494833,246.812943,1003.49115,-194.909912,1.16867124628093,2.2751318699465,2.28347210802819,18.915348,801.261597,163.71138,134.358841,1189.545898,-7.035492,"CRUZEXT"
132,17,3,22.544,4865.64,0.648474,-0.076466,0.694219,-0.30281,-0.92777,0.32274,-0.00058,4862.48,0.229469,-0.185796,0.616495,-0.729902,-0.56627,0.80191,-0.18577,2.16,2.57,2.71,2.77,3.15,3.03,3.02,3.83,3.2,3.92,4.03,3.92,3.77,3.83,3.71,2753,11.470833,61402.544833,246.812943,1003.49115,-194.909912,1.16638123296227,2.27379565979458,2.2831337639759,18.785995,801.188416,163.721268,133.38237,1189.863159,-6.492362,"CRUZEXT"
133,17,3,22.549,4865.66,0.648408,-0.076312,0.694402,-0.30257,-0.92857,0.32378,-3e-05,4862.5,0.22401,-0.183606,0.617935,-0.730934,-0.55922,0.81205,-0.17918,2.16,2.57,2.71,2.77,3.15,3.03,3.02,3.83,3.2,3.92,4.03,3.92,3.77,3.83,3.7,2754,11.475,61402.549,246.812943,1003.49115,-194.909912,1.16617904881011,2.2736518878597,2.28312923190774,18.776978,801.181824,163.719971,133.302246,1189.875122,-6.449281,"CRUZEXT"
134,17,3,22.566,4865.68,0.648547,-0.076175,0.694373,-0.302374,-0.93188,0.32528,0.0007,4862.52,0.218644,-0.181557,0.61935,-0.731873,-0.54093,0.81773,-0.17916,2.16,2.57,2.71,2.77,3.15,3.03,3.02,3.83,3.2,3.92,4.03,3.92,3.77,3.83,3.71,2759,11.495833,61402.569833,246.812943,1003.49115,-194.909912,1.16523330569896,2.27304857977396,2.28303819916779,18.728943,801.135742,163.721008,132.898651,1189.992798,-6.215763,"CRUZEXT"
135,17,3,22.571,4865.7,0.648479,-0.076037,0.694542,-0.302165,-0.93251,0.32539,0.00031,4862.54,0.213422,-0.179526,0.620383,-0.733039,-0.52576,0.80157,-0.1717,2.16,2.57,2.71,2.77,3.15,3.03,3.02,3.83,3.2,3.92,4.03,3.92,3.77,3.83,3.71,2760,11.5,61402.574,246.812943,1003.49115,-194.909912,1.16503667543551,2.2729135858942,2.28302862960011,18.719481,801.136719,163.725113,132.81778,1190.01001,-6.170327,"CRUZEXT"
136,17,3,22.623,4865.72,0.648645,-0.075855,0.694493,-0.30197,-0.93148,0.32345,0.00201,4862.56,0.208057,-0.177576,0.621249,-0.734322,-0.51013,0.80596,-0.1709,2.16,2.57,2.71,2.77,3.15,3.03,3.02,3.83,3.2,3.92,4.04,3.92,3.77,3.83,3.71,2772,11.55,61402.624,246.812943,1003.49115,-194.909912,1.16276687421315,2.27136110616893,2.28290802613884,18.629879,801.065735,163.811035,131.840759,1190.276733,-5.57913,"CRUZEXT"
137,17,3,22.628,4865.74,0.648805,-0.075685,0.694441,-0.301788,-0.933,0.32392,0.00354,4862.58,0.202766,-0.175691,0.62221,-0.735441,-0.5014,0.81306,-0.16741,2.16,2.57,2.71,2.77,3.15,3.03,3.02,3.83,3.2,3.92,4.03,3.92,3.77,3.83,3.71,2773,11.554167,61402.628167,246.812943,1003.49115,-194.909912,1.16258546209553,2.27130875770573,2.28282657567693,18.62056,801.054382,163.818283,131.765976,1190.308228,-5.553319,"CRUZEXT"
138,17,3,22.648,4865.76,0.64881,-0.075496,0.694559,-0.301551,-0.93183,0.32411,0.0023,4862.6,0.197915,-0.173821,0.623425,-0.736178,-0.50258,0.81935,-0.16691,2.16,2.57,2.71,2.77,3.15,3.03,3.02,3.83,3.2,3.92,4.03,3.92,3.77,3.83,3.71,2778,11.575,61402.649,246.812943,1003.49115,-194.909912,1.16176471334351,2.27095421464119,2.28257474413166,18.584082,801.027222,163.874435,131.414734,1190.445068,-5.390214,"CRUZEXT"
139,17,3,22.653,4865.78,0.649005,-0.075367,0.694487,-0.301333,-0.92859,0.31965,0.0033,4862.62,0.192796,-0.171909,0.624621,-0.73697,-0.48506,0.83011,-0.16661,2.16,2.57,2.71,2.77,3.15,3.03,3.02,3.83,3.2,3.92,4.04,3.92,3.77,3.83,3.71,2779,11.579167,61402.653167,246.812943,1003.49115,-194.909912,1.16159918602939,2.27090687473044,2.28249976084042,18.579765,801.011414,163.880981,131.345413,1190.475464,-5.365228,"CRUZEXT"
140,17,3,22.704,4865.8,0.648863,-0.07536,0.694715,-0.301114,-0.92964,0.32826,0.00213,4862.64,0.187956,-0.170135,0.625813,-0.737621,-0.4808,0.83719,-0.16415,2.16,2.57,2.71,2.77,3.16,3.03,3.02,3.83,3.2,3.92,4.04,3.92,3.77,3.83,3.71,2792,11.633333,61402.707333,246.812943,1003.49115,-194.909912,1.15894856258394,2.26926298413684,2.28217592753038,18.467363,800.937012,164.038544,130.303223,1190.651489,-4.886996,"CRUZEXT"
141,17,3,22.71,4865.82,0.648994,-0.075312,0.694631,-0.301035,-0.92833,0.32781,0.00305,4862.66,0.182698,-0.167866,0.626863,-0.73857,-0.4617,0.85535,-0.16521,2.16,2.57,2.71,2.77,3.15,3.03,3.02,3.83,3.2,3.92,4.04,3.92,3.77,3.83,3.71,2793,11.6375,61402.7115,246.812943,1003.49115,-194.909912,1.15875938370708,2.26913202247233,2.2821659854051,18.457758,800.936462,164.044479,130.228958,1190.660522,-4.850372,"CRUZEXT"
142,17,3,22.729,4865.84,0.649112,-0.075313,0.694551,-0.300967,-0.92868,0.32818,0.00356,4862.68,0.177652,-0.166037,0.628004,-0.739245,-0.46981,0.85155,-0.16575,2.16,2.57,2.71,2.77,3.15,3.03,3.02,3.83,3.2,3.92,4.04,3.92,3.77,3.83,3.71,2798,11.658333,61402.732333,246.812943,1003.49115,-194.909912,1.15786537456538,2.26861155977085,2.28202026062188,18.41428,800.899841,164.087296,129.864594,1190.746094,-4.677658,"CRUZEXT"
143,17,3,22.737,4865.86,0.64884,-0.075271,0.694835,-0.300907,-0.93023,0.3283,0.00314,4862.7,0.172798,-0.164259,0.62924,-0.739741,-0.45379,0.85683,-0.16595,2.16,2.57,2.71,2.77,3.15,3.03,3.02,3.83,3.2,3.92,4.04,3.92,3.78,3.82,3.71,2800,11.666667,61402.740667,246.812943,1003.49115,-194.909912,1.15750265227102,2.26837235207571,2.28198871318254,18.397064,800.884644,164.098862,129.724609,1190.761719,-4.614461,"CRUZEXT"
144,17,3,22.782,4865.88,0.648947,-0.075305,0.694738,-0.300893,-0.93159,0.3267,0.0042,4862.72,0.168009,-0.162518,0.630289,-0.740336,-0.45011,0.86473,-0.16108,2.16,2.57,2.71,2.77,3.15,3.03,3.02,3.83,3.2,3.92,4.04,3.92,3.78,3.82,3.71,2810,11.708333,61402.782333,246.812943,1003.49115,-194.909912,1.15576639430718,2.26731909135695,2.28174359813892,18.280798,800.832214,164.122299,129.027863,1190.897583,-4.290938,"CRUZEXT"
145,17,3,22.787,4865.9,0.648595,-0.075352,0.695095,-0.300816,-0.92983,0.32591,0.00473,4862.74,0.16322,-0.160709,0.631138,-0.741078,-0.43992,0.87592,-0.16373,2.16,2.57,2.71,2.77,3.15,3.03,3.02,3.83,3.2,3.92,4.03,3.92,3.78,3.82,3.72,2812,11.716667,61402.790667,246.812943,1003.49115,-194.909912,1.15547857726473,2.26711245913879,2.28173440863821,18.253519,800.825073,164.122513,128.909592,1190.916992,-4.226116,"CRUZEXT"
146,17,3,22.806,4865.92,0.648692,-0.075416,0.694975,-0.300866,-0.9318,0.32502,0.00504,4862.76,0.158664,-0.158974,0.632206,-0.741531,-0.42753,0.8806,-0.16146,2.16,2.57,2.71,2.77,3.15,3.03,3.02,3.83,3.2,3.92,4.03,3.92,3.78,3.82,3.72,2816,11.733333,61402.807333,246.812943,1003.49115,-194.909912,1.15486032458287,2.26670576084466,2.28167725599528,18.207924,800.792053,164.123428,128.660446,1190.958862,-4.103338,"CRUZEXT"
147,17,3,22.811,4865.94,0.648794,-0.075448,0.694882,-0.300854,-0.93028,0.32371,0.00609,4862.78,0.15394,-0.157053,0.632936,-0.742313,-0.42524,0.89029,-0.15796,2.16,2.58,2.71,2.77,3.15,3.03,3.02,3.83,3.2,3.92,4.02,3.92,3.78,3.82,3.72,2817,11.7375,61402.8115,246.812943,1003.49115,-194.909912,1.15470780246014,2.26657999880142,2.28168837049682,18.201742,800.786499,164.119904,128.600311,1190.961304,-4.069656,"CRUZEXT"
148,17,3,22.865,4865.96,0.64857,-0.075418,0.695169,-0.300681,-0.93164,0.32249,0.00518,4862.8,0.148984,-0.155173,0.633506,-0.743233,-0.41844,0.89293,-0.15871,2.16,2.57,2.71,2.77,3.15,3.03,3.02,3.83,3.2,3.92,4.02,3.92,3.79,3.82,3.72,2830,11.791667,61402.865667,246.812943,1003.49115,-194.909912,1.15298220108622,2.26563400043732,2.28133723575546,18.051899,800.724915,164.08194,127.880753,1191.156128,-3.732595,"CRUZEXT"
149,17,3,22.873,4865.98,0.648747,-0.075316,0.69508,-0.300532,-0.93206,0.32167,0.0079,4862.82,0.14415,-0.153191,0.634164,-0.744036,-0.41138,0.88485,-0.16073,2.16,2.57,2.71,2.77,3.15,3.03,3.02,3.83,3.2,3.92,4.01,3.92,3.79,3.82,3.72,2832,11.8,61402.874,246.812943,1003.49115,-194.909912,1.15274657072469,2.26547603348244,2.28131758586218,18.024862,800.720642,164.082718,127.774017,1191.189331,-3.66689,"CRUZEXT"
150,17,3,22.886,4866,0.648741,-0.075151,0.6952,-0.300307,-0.9314,0.32214,0.00513,4862.84,0.139294,-0.151259,0.635171,-0.744497,-0.40595,0.89035,-0.15826,2.16,2.57,2.71,2.77,3.15,3.03,3.02,3.83,3.2,3.92,4,3.92,3.79,3.82,3.73,2835,11.8125,61402.8865,246.812943,1003.49115,-194.909912,1.15240349962356,2.26532347040568,2.28121180558641,18.002806,800.703796,164.073929,127.627419,1191.241089,-3.602643,"CRUZEXT"
151,17,3,22.891,4866.02,0.648941,-0.075007,0.695093,-0.300158,-0.93117,0.32261,0.0082,4862.86,0.134529,-0.149321,0.635922,-0.745123,-0.39012,0.89338,-0.15302,2.16,2.58,2.71,2.77,3.15,3.03,3.02,3.83,3.2,3.92,4,3.92,3.79,3.81,3.73,2837,11.820833,61402.894833,246.812943,1003.49115,-194.909912,1.15213258824979,2.26521350451859,2.28111770148654,17.979734,800.697021,164.072464,127.513779,1191.280884,-3.557764,"CRUZEXT"
152,17,3,22.94,4866.04,0.649128,-0.074862,0.695011,-0.299979,-0.92962,0.32527,0.00755,4862.88,0.12984,-0.14735,0.636611,-0.745759,-0.38477,0.90072,-0.14804,2.16,2.58,2.71,2.77,3.16,3.03,3.02,3.83,3.2,3.92,4,3.92,3.79,3.81,3.74,2848,11.866667,61402.940667,246.812943,1003.49115,-194.909912,1.15053971669525,2.26449497515727,2.28063382322554,17.887604,800.682495,164.031067,126.85524,1191.481812,-3.295441,"CRUZEXT"
153,17,3,22.945,4866.06,0.649082,-0.074762,0.69517,-0.299736,-0.93002,0.32312,0.00977,4862.9,0.12521,-0.14534,0.637387,-0.746281,-0.38121,0.89706,-0.14907,2.16,2.58,2.71,2.77,3.15,3.03,3.02,3.83,3.2,3.92,3.99,3.92,3.8,3.81,3.74,2850,11.875,61402.949,246.812943,1003.49115,-194.909912,1.15018464759592,2.26427524061853,2.28058469820603,17.867708,800.681213,164.015808,126.709877,1191.510498,-3.226504,"CRUZEXT"
154,17,3,22.965,4866.08,0.649309,-0.074562,0.695065,-0.299539,-0.93253,0.32532,0.01139,4862.92,0.120551,-0.143334,0.638101,-0.746826,-0.37013,0.89954,-0.15268,2.16,2.57,2.71,2.77,3.15,3.03,3.02,3.83,3.19,3.92,3.98,3.92,3.8,3.81,3.74,2854,11.891667,61402.965667,246.812943,1003.49115,-194.909912,1.14963335465045,2.26403950529959,2.28040320605528,17.836798,800.678833,163.983154,126.477852,1191.588501,-3.133098,"CRUZEXT"
155,17,3,22.97,4866.1,0.64923,-0.07439,0.695217,-0.299398,-0.93065,0.32692,0.00867,4862.94,0.116184,-0.140908,0.638689,-0.747478,-0.36857,0.89751,-0.14589,2.16,2.58,2.71,2.77,3.15,3.03,3.01,3.83,3.18,3.92,3.98,3.92,3.8,3.8,3.74,2856,11.9,61402.974,246.812943,1003.49115,-194.909912,1.14943815951793,2.26395188885154,2.28034296712709,17.82519,800.671814,163.965973,126.388969,1191.62561,-3.088487,"CRUZEXT"
156,17,3,23.021,4866.12,0.649406,-0.074291,0.695112,-0.299284,-0.92838,0.32581,0.01229,4862.96,0.112129,-0.139019,0.639109,-0.748091,-0.337,0.91289,-0.14056,2.16,2.58,2.71,2.77,3.15,3.03,3.01,3.83,3.17,3.92,3.97,3.92,3.8,3.8,3.75,2868,11.95,61403.024,246.812943,1003.49115,-194.909912,1.14800622113686,2.26300647403004,2.28020029457489,17.739363,800.624817,163.926498,125.767532,1191.779785,-2.744388,"CRUZEXT"
157,17,3,23.026,4866.14,0.649623,-0.074176,0.694963,-0.299189,-0.93133,0.32629,0.01106,4862.98,0.10743,-0.137361,0.63976,-0.748531,-0.34372,0.91115,-0.14641,2.16,2.58,2.71,2.77,3.15,3.03,3.01,3.83,3.16,3.92,3.97,3.92,3.81,3.8,3.75,2869,11.954167,61403.028167,246.812943,1003.49115,-194.909912,1.14789940492966,2.26295408010905,2.28017150449514,17.737728,800.625793,163.921646,125.719368,1191.798096,-2.719999,"CRUZEXT"
158,17,3,23.048,4866.16,0.649593,-0.073988,0.695109,-0.298962,-0.93373,0.32467,0.01083,4863,0.103057,-0.135408,0.640325,-0.749018,-0.33568,0.91031,-0.1483,2.16,2.58,2.71,2.77,3.15,3.03,3.01,3.83,3.15,3.92,3.97,3.92,3.81,3.8,3.75,2874,11.975,61403.049,246.812943,1003.49115,-194.909912,1.14740292364153,2.26262478228835,2.28012273150032,17.720505,800.617798,163.908081,125.481247,1191.88562,-2.565178,"CRUZEXT"
159,17,3,23.053,4866.18,0.649835,-0.073791,0.694996,-0.298748,-0.93164,0.32225,0.01144,4863.02,0.098908,-0.1334,0.640915,-0.749433,-0.3286,0.91649,-0.14675,2.16,2.58,2.71,2.77,3.15,3.03,3.01,3.83,3.15,3.92,3.96,3.92,3.81,3.8,3.75,2875,11.979167,61403.053167,246.812943,1003.49115,-194.909912,1.14729495654191,2.26257670611169,2.28008868245731,17.718575,800.619812,163.90538,125.431137,1191.907349,-2.53946,"CRUZEXT"
160,17,3,23.1,4866.2,0.649807,-0.073582,0.695145,-0.298513,-0.9315,0.32223,0.01196,4863.04,0.094617,-0.131512,0.641287,-0.750002,-0.31614,0.91799,-0.1475,2.16,2.58,2.71,2.77,3.15,3.03,3.01,3.83,3.15,3.92,3.96,3.93,3.82,3.8,3.75,2887,12.029167,61403.103167,246.812943,1003.49115,-194.909912,1.14605061125538,2.26169222687751,2.28002339067456,17.678164,800.637512,163.805969,124.875702,1192.046997,-2.205685,"CRUZEXT"
161,17,3,23.105,4866.22,0.650026,-0.073431,0.695032,-0.298338,-0.92357,0.32898,0.01053,4863.06,0.090479,-0.129489,0.641541,-0.750647,-0.31592,0.92249,-0.14826,2.16,2.58,2.71,2.77,3.16,3.03,3.01,3.83,3.15,3.92,3.96,3.93,3.82,3.8,3.75,2888,12.033333,61403.107333,246.812943,1003.49115,-194.909912,1.14594926982726,2.26158848189487,2.28004947958134,17.669724,800.64624,163.79689,124.837418,1192.040283,-2.182506,"CRUZEXT"
162,17,3,23.127,4866.24,0.650283,-0.073272,0.694906,-0.298109,-0.92793,0.32711,0.01032,4863.08,0.086097,-0.127413,0.641797,-0.751299,-0.30057,0.92224,-0.14181,2.16,2.58,2.71,2.77,3.15,3.03,3.01,3.84,3.14,3.92,3.96,3.93,3.82,3.8,3.75,2893,12.054167,61403.128167,246.812943,1003.49115,-194.909912,1.14538127349517,2.26115327488552,2.2800500677367,17.636065,800.650391,163.742874,124.622406,1192.036499,-2.084709,"CRUZEXT"
163,17,3,23.133,4866.26,0.650305,-0.073122,0.694977,-0.297934,-0.93194,0.32628,0.0121,4863.1,0.081859,-0.125043,0.641888,-0.752092,-0.2985,0.9402,-0.14052,2.16,2.58,2.71,2.77,3.15,3.03,3.01,3.83,3.14,3.92,3.97,3.94,3.83,3.8,3.75,2895,12.0625,61403.1365,246.812943,1003.49115,-194.909912,1.14515652620876,2.26097331462227,2.28005786619621,17.622713,800.642151,163.725555,124.538399,1192.031494,-2.04605,"CRUZEXT"
164,17,3,23.185,4866.28,0.650597,-0.073016,0.694745,-0.297862,-0.92883,0.32727,0.01712,4863.12,0.077685,-0.12279,0.641934,-0.752867,-0.2887,0.93926,-0.14535,2.16,2.58,2.71,2.77,3.15,3.03,3.01,3.83,3.14,3.92,3.96,3.94,3.83,3.8,3.75,2907,12.1125,61403.1865,246.812943,1003.49115,-194.909912,1.14370645882221,2.25978324449306,2.28013502821175,17.572208,800.618408,163.704666,123.937508,1192.081787,-1.698628,"CRUZEXT"
165,17,3,23.19,4866.3,0.650674,-0.072917,0.694747,-0.297714,-0.93318,0.32329,0.01685,4863.14,0.073541,-0.120606,0.641998,-0.753581,-0.28153,0.93692,-0.14741,2.16,2.58,2.71,2.77,3.15,3.03,3,3.83,3.14,3.92,3.97,3.94,3.84,3.8,3.75,2908,12.116667,61403.190667,246.812943,1003.49115,-194.909912,1.1436243769211,2.25970081208467,2.2801542567744,17.567068,800.618652,163.70108,123.895805,1192.092896,-1.663577,"CRUZEXT"
166,17,3,23.208,4866.32,0.650992,-0.072764,0.694541,-0.297536,-0.93485,0.32178,0.0101,4863.16,0.069822,-0.118668,0.642083,-0.75417,-0.2643,0.94493,-0.14291,2.16,2.58,2.71,2.77,3.15,3.03,3,3.83,3.14,3.92,3.97,3.95,3.84,3.8,3.75,2913,12.1375,61403.2115,246.812943,1003.49115,-194.909912,1.14302513568656,2.25927875600107,2.28011585234769,17.56147,800.618103,163.70491,123.641243,1192.138306,-1.526567,"CRUZEXT"
167,17,3,23.213,4866.34,0.651296,-0.072524,0.694368,-0.297333,-0.93126,0.32084,0.01181,4863.18,0.065909,-0.116285,0.641927,-0.755025,-0.26871,0.94081,-0.14708,2.16,2.58,2.71,2.77,3.15,3.03,3,3.83,3.14,3.92,3.98,3.95,3.85,3.8,3.75,2914,12.141667,61403.215667,246.812943,1003.49115,-194.909912,1.14290737852594,2.25915129120041,2.28015244246173,17.557241,800.615051,163.699112,123.587311,1192.142944,-1.483602,"CRUZEXT"
168,17,3,23.263,4866.36,0.65139,-0.072272,0.694372,-0.297178,-0.92739,0.32619,0.0083,4863.2,0.062251,-0.114161,0.641748,-0.755812,-0.24899,0.93546,-0.14851,2.16,2.58,2.71,2.77,3.16,3.03,2.99,3.83,3.14,3.91,3.99,3.95,3.85,3.8,3.75,2926,12.191667,61403.265667,246.812943,1003.49115,-194.909912,1.14126647353222,2.2578416402407,2.28019690487047,17.519701,800.570679,163.662231,122.855751,1192.281616,-1.022533,"CRUZEXT"
169,17,3,23.268,4866.38,0.651683,-0.072054,0.69419,-0.297015,-0.92542,0.32949,0.0098,4863.22,0.058222,-0.112157,0.641881,-0.75632,-0.23999,0.93891,-0.1484,2.16,2.58,2.71,2.77,3.16,3.03,2.99,3.83,3.14,3.91,3.99,3.96,3.86,3.8,3.75,2927,12.195833,61403.269833,246.812943,1003.49115,-194.909912,1.14114663221862,2.25772485436325,2.28022095648891,17.517458,800.567749,163.663635,122.799332,1192.29126,-0.979588,"CRUZEXT"
170,17,3,23.287,4866.4,0.651801,-0.071843,0.69417,-0.296853,-0.92672,0.33058,0.01214,4863.24,0.05429,-0.110076,0.642158,-0.756683,-0.23233,0.94753,-0.15424,2.16,2.58,2.71,2.77,3.15,3.03,2.98,3.83,3.15,3.91,4,3.96,3.86,3.8,3.75,2932,12.216667,61403.290667,246.812943,1003.49115,-194.909912,1.14061903159754,2.25729758463124,2.28024037641717,17.495869,800.558716,163.644241,122.548859,1192.356567,-0.806984,"CRUZEXT"
171,17,3,23.292,4866.42,0.652191,-0.071644,0.693884,-0.296713,-0.92812,0.32764,0.01655,4863.26,0.05026,-0.108224,0.642301,-0.757107,-0.23158,0.94172,-0.15703,2.16,2.58,2.71,2.77,3.16,3.03,2.97,3.83,3.15,3.91,4,3.96,3.86,3.8,3.75,2933,12.220833,61403.294833,246.812943,1003.49115,-194.909912,1.14051028675933,2.2572010655407,2.28025270946677,17.495556,800.551147,163.64093,122.497375,1192.367798,-0.769786,"CRUZEXT"
172,17,3,23.344,4866.44,0.652589,-0.071416,0.69358,-0.296604,-0.93166,0.32676,0.01283,4863.28,0.046381,-0.106207,0.642601,-0.757386,-0.21238,0.94373,-0.15726,2.16,2.58,2.71,2.77,3.15,3.03,2.97,3.82,3.16,3.91,4.01,3.96,3.87,3.8,3.75,2945,12.270833,61403.344833,246.812943,1003.49115,-194.909912,1.13975771497599,2.25625153114616,2.28061670595087,17.43819,800.518677,163.548462,122.110764,1192.425781,-0.402358,"CRUZEXT"
173,17,3,23.349,4866.46,0.652799,-0.071112,0.693497,-0.296409,-0.92944,0.32275,0.01069,4863.3,0.042122,-0.104183,0.642863,-0.757693,-0.19845,0.95712,-0.15156,2.16,2.58,2.71,2.77,3.15,3.03,2.96,3.83,3.16,3.91,4.01,3.96,3.87,3.8,3.75,2946,12.275,61403.349,246.812943,1003.49115,-194.909912,1.13973570740796,2.25619826446088,2.28065261233548,17.426462,800.513977,163.537781,122.086197,1192.44165,-0.365219,"CRUZEXT"
174,17,3,23.365,4866.48,0.653137,-0.070873,0.69326,-0.296276,-0.93044,0.32199,0.00861,4863.32,0.037422,-0.102174,0.64308,-0.758029,-0.1965,0.97065,-0.15505,2.16,2.58,2.71,2.77,3.15,3.04,2.96,3.83,3.17,3.9,4.02,3.97,3.88,3.8,3.75,2950,12.291667,61403.365667,246.812943,1003.49115,-194.909912,1.13969826697044,2.25593015825293,2.28088962523259,17.403219,800.505676,163.525116,121.995865,1192.501099,-0.18648,"CRUZEXT"
175,17,3,23.384,4866.5,0.653114,-0.070688,0.693353,-0.296152,-0.92773,0.32509,0.01032,4863.34,0.03286,-0.100254,0.643368,-0.758253,-0.204,0.97074,-0.16338,2.16,2.58,2.71,2.77,3.15,3.04,2.95,3.82,3.17,3.9,4.02,3.97,3.87,3.8,3.75,2955,12.3125,61403.3865,246.812943,1003.49115,-194.909912,1.13973541644805,2.25569780648249,2.28114843571142,17.395132,800.520752,163.511444,121.89006,1192.622803,0.052995,"CRUZEXT"
176,17,3,23.389,4866.52,0.653414,-0.070522,0.693133,-0.296047,-0.93169,0.32521,0.01132,4863.36,0.028712,-0.098348,0.643847,-0.758264,-0.19101,0.95691,-0.16596,2.16,2.58,2.71,2.77,3.15,3.04,2.95,3.83,3.18,3.9,4.03,3.98,3.88,3.8,3.75,2956,12.316667,61403.390667,246.812943,1003.49115,-194.909912,1.13971581964233,2.25563173470465,2.28119886444516,17.390884,800.528564,163.510086,121.857132,1192.649292,0.107508,"CRUZEXT"
177,17,3,23.443,4866.54,0.653733,-0.070322,0.692917,-0.295897,-0.93347,0.32302,0.01165,4863.38,0.024832,-0.096464,0.644356,-0.758211,-0.18162,0.94958,-0.15716,2.16,2.58,2.71,2.77,3.15,3.04,2.95,3.83,3.19,3.9,4.04,3.98,3.88,3.8,3.75,2969,12.370833,61403.444833,246.812943,1003.49115,-194.909912,1.14007540724877,2.25491207123134,2.28218780843839,17.385653,800.609619,163.54332,121.601532,1193.017334,0.884072,"CRUZEXT"
178,17,3,23.447,4866.56,0.653858,-0.070079,0.692945,-0.295611,-0.93061,0.32324,0.00882,4863.4,0.02084,-0.094774,0.644824,-0.758146,-0.16401,0.95006,-0.14706,2.16,2.58,2.71,2.78,3.16,3.04,2.95,3.83,3.19,3.9,4.04,3.98,3.89,3.8,3.75,2970,12.375,61403.449,246.812943,1003.49115,-194.909912,1.14009112970557,2.2548397425071,2.28227150108854,17.388554,800.610657,163.551514,121.58358,1193.03418,0.937858,"CRUZEXT"
179,17,3,23.468,4866.58,0.654174,-0.069882,0.692752,-0.29541,-0.92859,0.32497,0.00987,4863.42,0.016942,-0.093067,0.645118,-0.758204,-0.16352,0.95457,-0.14671,2.16,2.58,2.71,2.77,3.15,3.04,2.94,3.83,3.2,3.9,4.04,3.98,3.89,3.79,3.75,2975,12.395833,61403.469833,246.812943,1003.49115,-194.909912,1.14010835041936,2.25441548648328,2.28270479967213,17.443741,800.630005,163.601776,121.461182,1193.127808,1.235142,"CRUZEXT"
180,17,3,23.473,4866.6,0.654206,-0.06973,0.692789,-0.295289,-0.93188,0.3313,0.01202,4863.44,0.013122,-0.091349,0.645516,-0.758151,-0.16375,0.94807,-0.14971,2.17,2.58,2.71,2.78,3.16,3.04,2.94,3.83,3.21,3.9,4.05,3.98,3.89,3.79,3.76,2976,12.4,61403.474,246.812943,1003.49115,-194.909912,1.14011084308202,2.25433383042309,2.28278755097588,17.452232,800.637268,163.60788,121.436546,1193.147095,1.29357,"CRUZEXT"
181,17,3,23.523,4866.62,0.65458,-0.069602,0.692505,-0.295157,-0.93391,0.32887,0.01454,4863.46,0.009761,-0.089724,0.646069,-0.757925,-0.15077,0.94231,-0.14912,2.17,2.58,2.71,2.78,3.16,3.04,2.94,3.83,3.21,3.9,4.06,3.99,3.9,3.8,3.76,2988,12.45,61403.524,246.812943,1003.49115,-194.909912,1.13997350610216,2.25333711011215,2.28366860825812,17.596771,800.708008,163.749298,121.108444,1193.353882,1.948937,"CRUZEXT"
182,17,3,23.528,4866.64,0.655002,-0.069405,0.692197,-0.294991,-0.93452,0.32818,0.01116,4863.48,0.006615,-0.088227,0.646418,-0.757836,-0.1326,0.9476,-0.1468,2.17,2.58,2.71,2.78,3.16,3.04,2.94,3.83,3.22,3.9,4.06,3.98,3.9,3.79,3.76,2989,12.454167,61403.528167,246.812943,1003.49115,-194.909912,1.13995359217431,2.25326096709205,2.28372866152749,17.613068,800.711609,163.767593,121.085724,1193.362183,1.989663,"CRUZEXT"
183,17,3,23.545,4866.66,0.655084,-0.069328,0.692147,-0.294943,-0.92678,0.3291,0.00893,4863.5,0.003647,-0.08685,0.646425,-0.758009,-0.12777,0.94519,-0.14366,2.17,2.58,2.71,2.78,3.16,3.04,2.94,3.83,3.23,3.9,4.06,3.98,3.91,3.79,3.76,2994,12.475,61403.549,246.812943,1003.49115,-194.909912,1.13986838431091,2.25293241383907,2.28398829484632,17.675598,800.756531,163.830368,120.957771,1193.443359,2.212685,"CRUZEXT"
184,17,3,23.554,4866.68,0.655427,-0.069312,0.691846,-0.294891,-0.92285,0.32945,0.01226,4863.52,0.000951,-0.085407,0.646347,-0.758248,-0.12061,0.95321,-0.14498,2.17,2.58,2.71,2.78,3.16,3.04,2.94,3.83,3.23,3.9,4.07,3.99,3.91,3.8,3.77,2996,12.483333,61403.557333,246.812943,1003.49115,-194.909912,1.13983376796824,2.25279899011161,2.28409369881338,17.704651,800.773376,163.857574,120.905609,1193.476563,2.303562,"CRUZEXT"
185,17,3,23.584,4866.7,0.655558,-0.069316,0.69173,-0.294871,-0.9295,0.32731,0.01864,4863.54,-0.001478,-0.084253,0.646176,-0.758522,-0.11255,0.95072,-0.15137,2.17,2.58,2.72,2.79,3.16,3.04,2.94,3.83,3.24,3.89,4.07,3.99,3.92,3.79,3.77,3003,12.5125,61403.5865,246.812943,1003.49115,-194.909912,1.13973336725453,2.25238935669332,2.28442173926873,17.733641,800.826599,163.95401,120.756981,1193.563354,2.568087,"CRUZEXT"
186,17,3,23.59,4866.72,0.655945,-0.069415,0.691327,-0.294933,-0.93026,0.32835,0.01139,4863.56,-0.003689,-0.083029,0.646025,-0.758778,-0.11103,0.94549,-0.15916,2.17,2.58,2.72,2.8,3.16,3.04,2.94,3.83,3.24,3.89,4.08,3.99,3.92,3.79,3.77,3004,12.516667,61403.590667,246.812943,1003.49115,-194.909912,1.13974137229878,2.2523662631584,2.28445071226735,17.725542,800.844543,163.963516,120.742714,1193.582764,2.600484,"CRUZEXT"
187,17,3,23.64,4866.74,0.656274,-0.069546,0.690973,-0.295,-0.93063,0.3252,0.01092,4863.58,-0.00562,-0.081938,0.646125,-0.7588,-0.10789,0.94264,-0.16262,2.16,2.57,2.73,2.8,3.16,3.04,2.94,3.83,3.24,3.89,4.08,3.98,3.92,3.79,3.77,3016,12.566667,61403.640667,246.812943,1003.49115,-194.909912,1.13975249469511,2.2517738548949,2.28504482056395,17.697824,800.994202,164.035324,120.543678,1193.748413,3.052789,"CRUZEXT"
188,17,3,23.645,4866.76,0.656328,-0.069671,0.690891,-0.295042,-0.93136,0.32608,0.0094,4863.6,-0.007284,-0.080812,0.646386,-0.758684,-0.10706,0.94611,-0.16415,2.16,2.57,2.73,2.81,3.16,3.04,2.94,3.83,3.25,3.88,4.08,3.98,3.93,3.79,3.77,3018,12.575,61403.649,246.812943,1003.49115,-194.909912,1.1397242983908,2.25168034638557,2.28511560297459,17.690018,800.989258,164.035599,120.510422,1193.764893,3.108953,"CRUZEXT"
189,17,3,23.664,4866.78,0.656634,-0.069794,0.690537,-0.295159,-0.93244,0.3265,0.00882,4863.62,-0.008501,-0.080046,0.646568,-0.758597,-0.09284,0.95893,-0.1582,2.15,2.57,2.73,2.81,3.17,3.04,2.94,3.83,3.25,3.88,4.09,3.98,3.93,3.79,3.78,3022,12.591667,61403.665667,246.812943,1003.49115,-194.909912,1.13969461076221,2.25154369180617,2.28522786921081,17.670792,800.973999,164.020157,120.446999,1193.81604,3.22125,"CRUZEXT"
190,17,3,23.673,4866.8,0.656714,-0.069851,0.690447,-0.295179,-0.92993,0.32235,0.00338,4863.64,-0.009752,-0.079321,0.646949,-0.758334,-0.10046,0.98366,-0.14954,2.15,2.57,2.74,2.82,3.16,3.04,2.93,3.83,3.26,3.88,4.09,3.98,3.93,3.79,3.78,3024,12.6,61403.674,246.812943,1003.49115,-194.909912,1.13964295070605,2.25144297029149,2.28528776619406,17.662563,800.969604,164.002731,120.405251,1193.833862,3.278136,"CRUZEXT"
191,17,3,23.703,4866.82,0.657087,-0.069893,0.690094,-0.295165,-0.9307,0.32047,-0.00024,4863.66,-0.01085,-0.078529,0.647483,-0.757945,-0.09464,0.96662,-0.15241,2.14,2.57,2.74,2.83,3.17,3.04,2.93,3.83,3.26,3.87,4.09,3.98,3.94,3.78,3.77,3031,12.629167,61403.703167,246.812943,1003.49115,-194.909912,1.13962103349624,2.25127712011939,2.28543481429463,17.660814,800.967957,163.889572,120.33165,1193.896606,3.417699,"CRUZEXT"
192,17,3,23.726,4866.84,0.657539,-0.069882,0.689639,-0.295224,-0.93523,0.31798,0.00785,4863.68,-0.011933,-0.077923,0.648662,-0.756983,-0.07661,0.95461,-0.15118,2.13,2.58,2.75,2.83,3.17,3.04,2.93,3.83,3.26,3.87,4.09,3.98,3.94,3.78,3.78,3037,12.654167,61403.728167,246.812943,1003.49115,-194.909912,1.13996778382564,2.25144406796987,2.28553576532994,17.656101,800.953308,163.765747,120.415947,1193.952515,3.458106,"CRUZEXT"
193,17,3,23.731,4866.86,0.657854,-0.069844,0.689338,-0.295233,-0.9367,0.31787,0.00882,4863.7,-0.013112,-0.077703,0.650186,-0.755677,-0.06376,0.95211,-0.14511,2.13,2.59,2.75,2.84,3.17,3.04,2.92,3.83,3.26,3.87,4.09,3.97,3.94,3.78,3.78,3038,12.658333,61403.732333,246.812943,1003.49115,-194.909912,1.14001529325265,2.25145806293728,2.28555835596256,17.660145,800.949341,163.742859,120.431602,1193.951904,3.459205,"CRUZEXT"
194,17,3,23.782,4866.88,0.658281,-0.069824,0.68892,-0.295264,-0.92294,0.31686,0.00244,4863.72,-0.014087,-0.077662,0.651676,-0.75438,-0.08187,0.9499,-0.15088,2.12,2.59,2.75,2.85,3.17,3.04,2.92,3.83,3.27,3.87,4.09,3.97,3.94,3.78,3.78,3050,12.708333,61403.782333,246.812943,1003.49115,-194.909912,1.14087923057097,2.25199832284443,2.28568623863556,17.609682,800.973328,163.576645,120.772064,1193.923584,3.326702,"CRUZEXT"
195,17,3,23.787,4866.9,0.658321,-0.069726,0.688943,-0.295143,-0.92228,0.31468,0.01092,4863.74,-0.014717,-0.077432,0.652655,-0.753544,-0.09298,0.94854,-0.14797,2.12,2.6,2.75,2.85,3.17,3.04,2.92,3.83,3.27,3.87,4.1,3.97,3.94,3.78,3.78,3052,12.716667,61403.790667,246.812943,1003.49115,-194.909912,1.14099321026476,2.25206250013465,2.2857100430479,17.598833,800.991943,163.551651,120.826698,1193.903442,3.295479,"CRUZEXT"
196,17,3,23.807,4866.92,0.658761,-0.069499,0.688607,-0.294998,-0.93529,0.31808,0.01563,4863.76,-0.014798,-0.077059,0.653145,-0.753156,-0.09152,0.95618,-0.1405,2.11,2.6,2.76,2.86,3.17,3.04,2.92,3.83,3.27,3.87,4.1,3.97,3.95,3.78,3.78,3056,12.733333,61403.807333,246.812943,1003.49115,-194.909912,1.14123777737864,2.25213926536007,2.28582127855389,17.585131,801.019897,163.502777,120.940308,1193.851318,3.247849,"CRUZEXT"
197,17,3,23.811,4866.94,0.659154,-0.069289,0.688295,-0.294898,-0.93757,0.31757,0.00832,4863.78,-0.014622,-0.07664,0.65352,-0.752877,-0.09748,0.9515,-0.1348,2.11,2.61,2.75,2.87,3.17,3.04,2.92,3.83,3.27,3.87,4.1,3.96,3.95,3.77,3.78,3057,12.7375,61403.8115,246.812943,1003.49115,-194.909912,1.14131222621646,2.25216806716612,2.28584975346041,17.589556,801.013,163.501495,120.971207,1193.842285,3.237906,"CRUZEXT"
198,17,3,23.861,4866.96,0.658973,-0.069143,0.688503,-0.294851,-0.92868,0.32378,0.00323,4863.8,-0.014121,-0.076461,0.653888,-0.752586,-0.0847,0.9438,-0.13213,2.1,2.61,2.75,2.87,3.17,3.04,2.91,3.83,3.28,3.87,4.1,3.96,3.95,3.77,3.78,3069,12.7875,61403.8615,246.812943,1003.49115,-194.909912,1.14198741040405,2.25247191834234,2.28606549144109,17.616314,800.999451,163.444977,121.31884,1193.667969,3.031471,"CRUZEXT"
199,17,3,23.866,4866.98,0.659293,-0.068936,0.688267,-0.294735,-0.93035,0.32703,0.00302,4863.82,-0.0133,-0.076387,0.654034,-0.752481,-0.08386,0.956,-0.13044,2.1,2.62,2.75,2.88,3.17,3.04,2.91,3.83,3.28,3.87,4.1,3.96,3.95,3.77,3.78,3071,12.795833,61403.869833,246.812943,1003.49115,-194.909912,1.14210928893074,2.25255339204965,2.28607805178768,17.640472,800.986633,163.43335,121.384056,1193.638916,2.984224,"CRUZEXT"
200,17,3,23.887,4867,0.659298,-0.068732,0.688313,-0.294666,-0.9368,0.32793,0.00478,4863.84,-0.012266,-0.076427,0.654064,-0.752469,-0.08784,0.96361,-0.12613,2.1,2.62,2.75,2.89,3.17,3.04,2.91,3.83,3.28,3.87,4.11,3.96,3.95,3.76,3.78,3076,12.816667,61403.890667,246.812943,1003.49115,-194.909912,1.14257697267646,2.25277454857126,2.28621646030585,17.683765,800.99646,163.402313,121.604294,1193.55127,2.870628,"CRUZEXT"
201,17,3,23.892,4867.02,0.659725,-0.068559,0.68794,-0.294621,-0.93215,0.32724,0.0061,4863.86,-0.011274,-0.076663,0.654044,-0.752477,-0.08262,0.95679,-0.13278,2.1,2.63,2.75,2.9,3.17,3.04,2.9,3.83,3.28,3.87,4.11,3.95,3.95,3.77,3.78,3077,12.820833,61403.894833,246.812943,1003.49115,-194.909912,1.1426716200803,2.25284390562945,2.28622011797512,17.692387,800.993103,163.398178,121.654053,1193.531372,2.833863,"CRUZEXT"
202,17,3,23.943,4867.04,0.660132,-0.068417,0.687565,-0.294618,-0.92723,0.32567,0.00546,4863.88,-0.010255,-0.077046,0.654013,-0.75248,-0.09204,0.94252,-0.13497,2.1,2.63,2.76,2.9,3.17,3.04,2.9,3.82,3.28,3.87,4.11,3.95,3.96,3.76,3.78,3089,12.870833,61403.944833,246.812943,1003.49115,-194.909912,1.14399358675619,2.25334682374305,2.28673025925441,17.705763,800.997314,163.351913,122.19577,1193.376221,2.666049,"CRUZEXT"
203,17,3,23.948,4867.06,0.660076,-0.068251,0.687671,-0.294535,-0.9243,0.32586,0.00617,4863.9,-0.008754,-0.0776,0.654109,-0.752358,-0.09542,0.95389,-0.13276,2.1,2.63,2.75,2.91,3.17,3.04,2.9,3.82,3.29,3.87,4.11,3.95,3.95,3.76,3.78,3090,12.875,61403.949,246.812943,1003.49115,-194.909912,1.14411728804546,2.25338942238863,2.28678227711733,17.698126,800.993896,163.35022,122.247009,1193.359741,2.650362,"CRUZEXT"
204,17,3,23.967,4867.08,0.660425,-0.068126,0.687355,-0.294518,-0.92803,0.32832,0.01015,4863.92,-0.006988,-0.07834,0.65433,-0.752108,-0.09907,0.9515,-0.13625,2.1,2.63,2.75,2.92,3.17,3.04,2.9,3.82,3.29,3.87,4.11,3.95,3.96,3.76,3.78,3095,12.895833,61403.969833,246.812943,1003.49115,-194.909912,1.14465335911083,2.25350065185199,2.28707997629415,17.682306,800.958313,163.368912,122.477318,1193.258423,2.585477,"CRUZEXT"
205,17,3,23.972,4867.1,0.66041,-0.06791,0.687443,-0.294396,-0.93202,0.32389,0.00963,4863.94,-0.005044,-0.079081,0.654341,-0.752037,-0.11087,0.94718,-0.13588,2.11,2.63,2.75,2.92,3.17,3.03,2.89,3.82,3.29,3.87,4.11,3.94,3.96,3.76,3.78,3096,12.9,61403.974,246.812943,1003.49115,-194.909912,1.14471995203678,2.2535030779986,2.28712818806107,17.684299,800.955933,163.376083,122.512642,1193.23291,2.569272,"CRUZEXT"
206,17,3,24.021,4867.12,0.660771,-0.067727,0.687147,-0.29432,-0.93279,0.32758,0.00525,4863.96,-0.002703,-0.079827,0.654249,-0.75205,-0.13602,0.94078,-0.1291,2.11,2.63,2.75,2.93,3.17,3.03,2.89,3.82,3.29,3.87,4.11,3.94,3.96,3.76,3.78,3108,12.95,61404.024,246.812943,1003.49115,-194.909912,1.14512176111998,2.25337158617062,2.28756336706444,17.697453,800.920837,163.462936,122.704811,1193.076782,2.53732,"CRUZEXT"
207,17,3,24.026,4867.14,0.661112,-0.067499,0.686892,-0.294202,-0.93187,0.32462,0.00164,4863.98,0.000362,-0.080545,0.654084,-0.752121,-0.12964,0.95414,-0.1272,2.11,2.64,2.75,2.93,3.17,3.03,2.89,3.82,3.29,3.88,4.11,3.94,3.96,3.76,3.78,3109,12.954167,61404.028167,246.812943,1003.49115,-194.909912,1.14514166865971,2.2533833788503,2.28756682899184,17.697294,800.910522,163.473419,122.721649,1193.062134,2.519985,"CRUZEXT"
208,17,3,24.045,4867.16,0.661151,-0.067262,0.686957,-0.294017,-0.92775,0.32211,-0.00424,4864,0.003959,-0.081767,0.653502,-0.752485,-0.12352,0.94697,-0.14526,2.11,2.64,2.75,2.94,3.17,3.03,2.89,3.82,3.29,3.88,4.11,3.94,3.96,3.76,3.78,3114,12.975,61404.049,246.812943,1003.49115,-194.909912,1.14517734589868,2.2533124359633,2.28766402274521,17.709681,800.866455,163.523285,122.80201,1192.937744,2.429666,"CRUZEXT"
209,17,3,24.05,4867.18,0.661462,-0.06703,0.68679,-0.29376,-0.92517,0.32696,-0.00452,4864.02,0.007539,-0.083048,0.651813,-0.753781,-0.12378,0.94889,-0.1382,2.11,2.64,2.74,2.95,3.17,3.03,2.89,3.82,3.29,3.87,4.12,3.94,3.96,3.75,3.78,3115,12.979167,61404.053167,246.812943,1003.49115,-194.909912,1.14520204141643,2.25329069809882,2.28770425203106,17.708992,800.857117,163.535278,122.828781,1192.9021,2.406921,"CRUZEXT"
210,17,3,24.101,4867.2,0.661487,-0.066735,0.68694,-0.293418,-0.9265,0.32837,0.00607,4864.04,0.01088,-0.083978,0.650304,-0.75494,-0.12024,0.9536,-0.12415,2.11,2.64,2.74,2.96,3.16,3.03,2.89,3.82,3.29,3.87,4.12,3.93,3.96,3.75,3.78,3127,13.029167,61404.103167,246.812943,1003.49115,-194.909912,1.14549146353503,2.25311232319218,2.28810015197908,17.696922,800.711182,163.702118,123.193123,1192.424683,2.042186,"CRUZEXT"
211,17,3,24.106,4867.22,0.661867,-0.06644,0.686717,-0.293151,-0.93297,0.32532,0.00759,4864.06,0.013851,-0.085024,0.649718,-0.755278,-0.12458,0.98132,-0.13068,2.11,2.64,2.74,2.96,3.17,3.02,2.89,3.82,3.29,3.87,4.12,3.93,3.96,3.75,3.78,3128,13.033333,61404.107333,246.812943,1003.49115,-194.909912,1.14554477200544,2.25311948616922,2.28813351866182,17.692301,800.706909,163.712631,123.23304,1192.387573,2.009297,"CRUZEXT"
212,17,3,24.124,4867.24,0.66218,-0.066243,0.686516,-0.292959,-0.93047,0.32656,0.00328,4864.08,0.016709,-0.086184,0.64951,-0.755269,-0.14383,0.98636,-0.13098,2.12,2.64,2.74,2.97,3.16,3.02,2.89,3.82,3.29,3.87,4.11,3.92,3.97,3.75,3.78,3132,13.05,61404.124,246.812943,1003.49115,-194.909912,1.14572207753575,2.25320213170472,2.28818635430042,17.665684,800.682251,163.740967,123.372292,1192.267822,1.876363,"CRUZEXT"
213,17,3,24.129,4867.26,0.661971,-0.066163,0.686788,-0.292812,-0.92852,0.32127,0.00303,4864.1,0.019444,-0.087396,0.649353,-0.755199,-0.15426,0.98692,-0.13436,2.12,2.64,2.73,2.97,3.16,3.02,2.88,3.82,3.29,3.87,4.11,3.92,3.96,3.75,3.78,3134,13.058333,61404.132333,246.812943,1003.49115,-194.909912,1.14585349511122,2.2532757802152,2.28821324277979,17.649382,800.678162,163.75351,123.458809,1192.207397,1.80161,"CRUZEXT"
214,17,3,24.182,4867.28,0.662153,-0.066202,0.686574,-0.292892,-0.92948,0.32183,0.0034,4864.12,0.021824,-0.08846,0.649201,-0.75514,-0.1555,0.99601,-0.13879,2.12,2.64,2.73,2.98,3.16,3.02,2.88,3.82,3.29,3.87,4.12,3.92,3.96,3.75,3.78,3146,13.108333,61404.182333,246.812943,1003.49115,-194.909912,1.14649210605649,2.25353407273267,2.28844195111522,17.575788,800.644043,163.811356,123.883446,1191.883423,1.452984,"CRUZEXT"
215,17,3,24.188,4867.3,0.661646,-0.066251,0.68699,-0.293052,-0.92569,0.32697,0.00253,4864.14,0.023956,-0.089448,0.64909,-0.755055,-0.15538,1.0001,-0.14291,2.13,2.64,2.73,2.99,3.16,3.02,2.88,3.82,3.3,3.87,4.12,3.92,3.96,3.75,3.78,3148,13.116667,61404.190667,246.812943,1003.49115,-194.909912,1.14658019499115,2.25359432449176,2.28844912330111,17.574936,800.635925,163.811356,123.943916,1191.841431,1.396284,"CRUZEXT"
216,17,3,24.208,4867.32,0.661801,-0.066279,0.686821,-0.293091,-0.92819,0.32727,0.00303,4864.16,0.025963,-0.090395,0.64903,-0.754927,-0.17948,0.98533,-0.14181,2.13,2.64,2.73,2.99,3.16,3.02,2.88,3.82,3.3,3.87,4.12,3.91,3.96,3.75,3.78,3153,13.1375,61404.2115,246.812943,1003.49115,-194.909912,1.1468196481016,2.25379548206228,2.28843162789094,17.579636,800.615845,163.779602,124.091545,1191.761475,1.260502,"CRUZEXT"
217,17,3,24.213,4867.34,0.662028,-0.066192,0.686655,-0.292988,-0.93447,0.32098,0.0038,4864.18,0.027983,-0.091077,0.648909,-0.754877,-0.1819,0.98267,-0.13862,2.13,2.65,2.72,3,3.16,3.02,2.88,3.82,3.3,3.87,4.11,3.91,3.96,3.75,3.78,3154,13.141667,61404.215667,246.812943,1003.49115,-194.909912,1.14684322144964,2.25382400949553,2.28842127949955,17.57979,800.613281,163.763809,124.112282,1191.746094,1.235273,"CRUZEXT"
218,17,3,24.262,4867.36,0.661935,-0.06596,0.686887,-0.292708,-0.93717,0.32298,0.00373,4864.2,0.03002,-0.091682,0.648638,-0.754958,-0.1796,0.99146,-0.13257,2.13,2.65,2.72,3.01,3.16,3.01,2.88,3.82,3.3,3.87,4.12,3.92,3.96,3.75,3.79,3166,13.191667,61404.265667,246.812943,1003.49115,-194.909912,1.14722806742396,2.25412008981082,2.28841984907629,17.601675,800.583435,163.629745,124.33255,1191.636963,1.04995,"CRUZEXT"
219,17,3,24.268,4867.38,0.662218,-0.065705,0.686748,-0.29245,-0.93363,0.32568,0.00507,4864.22,0.031792,-0.09229,0.648134,-0.755244,-0.17787,0.98525,-0.13649,2.13,2.65,2.71,3.02,3.16,3.01,2.87,3.82,3.3,3.87,4.12,3.91,3.96,3.75,3.79,3167,13.195833,61404.269833,246.812943,1003.49115,-194.909912,1.14723797154604,2.2541372297507,2.28841040028313,17.595358,800.584717,163.616821,124.34211,1191.630371,1.036838,"CRUZEXT"
220,17,3,24.286,4867.4,0.662166,-0.065426,0.686966,-0.292119,-0.92882,0.3234,0.01034,4864.24,0.033598,-0.092853,0.647664,-0.7555,-0.19725,0.9594,-0.14422,2.13,2.66,2.71,3.02,3.16,3.01,2.87,3.81,3.3,3.87,4.11,3.91,3.96,3.75,3.78,3171,13.2125,61404.2865,246.812943,1003.49115,-194.909912,1.14729183358987,2.25426203938553,2.28832778036149,17.592999,800.579956,163.568359,124.387505,1191.611938,0.969069,"CRUZEXT"
221,17,3,24.291,4867.42,0.662459,-0.065187,0.686778,-0.291949,-0.93012,0.32009,0.01311,4864.26,0.03576,-0.093364,0.647256,-0.755688,-0.19781,0.94535,-0.13806,2.12,2.66,2.7,3.03,3.15,3,2.87,3.82,3.3,3.87,4.12,3.91,3.96,3.74,3.78,3173,13.220833,61404.294833,246.812943,1003.49115,-194.909912,1.14730305006453,2.25428974257046,2.2883088812946,17.582962,800.579895,163.550964,124.407822,1191.591797,0.937194,"CRUZEXT"
222,17,3,24.341,4867.44,0.662733,-0.065003,0.686559,-0.291884,-0.93265,0.31939,0.01086,4864.28,0.038029,-0.093781,0.646705,-0.755997,-0.18942,0.94653,-0.1348,2.12,2.67,2.69,3.04,3.15,3.01,2.87,3.82,3.3,3.87,4.11,3.91,3.97,3.74,3.78,3185,13.270833,61404.344833,246.812943,1003.49115,-194.909912,1.14728161653833,2.25426632049715,2.28831582215842,17.520771,800.542969,163.562027,124.466087,1191.487915,0.83622,"CRUZEXT"
223,17,3,24.346,4867.46,0.662592,-0.064744,0.686838,-0.291606,-0.93239,0.31942,0.01202,4864.3,0.040333,-0.094363,0.646417,-0.756052,-0.19911,0.94636,-0.14601,2.12,2.67,2.68,3.05,3.15,3.01,2.87,3.82,3.3,3.87,4.12,3.91,3.96,3.74,3.78,3186,13.275,61404.349,246.812943,1003.49115,-194.909912,1.14728424865689,2.25427185677524,2.28831234076489,17.51156,800.540283,163.571945,124.474068,1191.478027,0.823813,"CRUZEXT"
224,17,3,24.364,4867.48,0.662866,-0.064559,0.686636,-0.2915,-0.93068,0.32546,0.00705,4864.32,0.04275,-0.094918,0.646497,-0.755781,-0.21169,0.93886,-0.15215,2.12,2.67,2.67,3.06,3.15,3,2.87,3.82,3.3,3.87,4.12,3.91,3.97,3.74,3.78,3190,13.291667,61404.365667,246.812943,1003.49115,-194.909912,1.14716714223611,2.25412161630929,2.28837225840292,17.473322,800.516846,163.619431,124.43457,1191.4552,0.849597,"CRUZEXT"
225,17,3,24.37,4867.5,0.662739,-0.064329,0.686869,-0.291291,-0.93201,0.32622,0.00598,4864.34,0.045607,-0.095535,0.646351,-0.755661,-0.20764,0.942,-0.15334,2.12,2.67,2.65,3.07,3.15,3,2.87,3.81,3.3,3.87,4.11,3.91,3.97,3.74,3.78,3192,13.3,61404.374,246.812943,1003.49115,-194.909912,1.14709631656439,2.25407412305474,2.28836561908171,17.44734,800.507141,163.643143,124.410355,1191.451904,0.856095,"CRUZEXT"
226,17,3,24.422,4867.52,0.66303,-0.064078,0.686695,-0.291092,-0.93182,0.32464,0.00364,4864.36,0.048952,-0.096322,0.645776,-0.755844,-0.21294,0.94535,-0.15384,2.12,2.68,2.64,3.08,3.15,3,2.86,3.81,3.3,3.87,4.12,3.9,3.97,3.74,3.78,3204,13.35,61404.424,246.812943,1003.49115,-194.909912,1.14615578375154,2.25351968803267,2.28820138258225,17.284147,800.361877,163.831833,124.036232,1191.505981,1.009025,"CRUZEXT"
227,17,3,24.426,4867.54,0.663344,-0.063872,0.686466,-0.290964,-0.9277,0.32663,0.0015,4864.38,0.052925,-0.097047,0.645131,-0.756033,-0.23129,0.93483,-0.16811,2.12,2.68,2.63,3.08,3.15,2.99,2.86,3.81,3.3,3.87,4.12,3.9,3.97,3.74,3.78,3205,13.354167,61404.428167,246.812943,1003.49115,-194.909912,1.14604551777194,2.25349033931208,2.28814681396767,17.26646,800.349365,163.852097,123.999466,1191.509644,1.007659,"CRUZEXT"
228,17,3,24.448,4867.56,0.663021,-0.063757,0.686784,-0.290973,-0.92733,0.32957,0.00148,4864.4,0.057743,-0.097565,0.644316,-0.75631,-0.24112,0.91752,-0.17939,2.12,2.68,2.62,3.09,3.15,2.99,2.86,3.81,3.3,3.87,4.11,3.9,3.96,3.74,3.78,3210,13.375,61404.449,246.812943,1003.49115,-194.909912,1.14534792590251,2.25318218163977,2.28792221165091,17.170324,800.29071,163.940628,123.799942,1191.453857,0.973343,"CRUZEXT"
229,17,3,24.453,4867.58,0.66326,-0.063731,0.686564,-0.290954,-0.9274,0.3316,0.00092,4864.42,0.06281,-0.097858,0.643163,-0.756849,-0.2179,0.92006,-0.17882,2.12,2.68,2.61,3.1,3.15,2.98,2.85,3.81,3.3,3.87,4.12,3.9,3.97,3.74,3.78,3211,13.379167,61404.453167,246.812943,1003.49115,-194.909912,1.14523457481523,2.25315384894648,2.28786417032881,17.154924,800.270874,163.9534,123.770554,1191.44519,0.958102,"CRUZEXT"
230,17,3,24.503,4867.6,0.66291,-0.063728,0.686924,-0.290903,-0.92733,0.32762,0.00262,4864.44,0.067659,-0.097926,0.642065,-0.757354,-0.22224,0.93494,-0.16532,2.12,2.68,2.6,3.1,3.15,2.97,2.85,3.81,3.3,3.88,4.11,3.9,3.96,3.74,3.78,3223,13.429167,61404.503167,246.812943,1003.49115,-194.909912,1.14337545680609,2.25227146812103,2.28732225625543,16.992426,799.889648,163.963974,123.311104,1191.172607,0.765013,"CRUZEXT"
231,17,3,24.508,4867.62,0.663104,-0.06378,0.686736,-0.290894,-0.92555,0.32561,0.00195,4864.46,0.072408,-0.097871,0.641449,-0.757444,-0.23526,0.95792,-0.165,2.12,2.68,2.59,3.11,3.15,2.97,2.84,3.81,3.3,3.87,4.12,3.9,3.96,3.74,3.78,3225,13.4375,61404.5115,246.812943,1003.49115,-194.909912,1.14307963858854,2.25214319110128,2.28722359065942,16.942951,799.862305,163.985153,123.24118,1191.127319,0.726575,"CRUZEXT"
232,17,3,24.528,4867.64,0.663248,-0.063847,0.686611,-0.290845,-0.92698,0.32708,0.0063,4864.48,0.077249,-0.0977,0.64093,-0.757427,-0.24165,0.95836,-0.17543,2.12,2.68,2.58,3.11,3.15,2.97,2.84,3.81,3.3,3.87,4.11,3.9,3.97,3.74,3.78,3229,13.454167,61404.528167,246.812943,1003.49115,-194.909912,1.14248297579684,2.25195192809762,2.28695755532924,16.856277,799.735474,163.956528,123.105019,1191.044312,0.626402,"CRUZEXT"
233,17,3,24.532,4867.66,0.66261,-0.06391,0.687258,-0.290759,-0.9318,0.32394,0.00462,4864.5,0.082126,-0.09755,0.640245,-0.757513,-0.24172,0.94509,-0.17275,2.12,2.68,2.58,3.12,3.15,2.97,2.83,3.81,3.3,3.87,4.11,3.9,3.97,3.74,3.78,3230,13.458333,61404.532333,246.812943,1003.49115,-194.909912,1.142343737619,2.25191129607569,2.28689144747562,16.833996,799.724609,163.964981,123.073334,1191.025757,0.602006,"CRUZEXT"
234,17,3,24.582,4867.68,0.662634,-0.064106,0.687173,-0.290859,-0.93045,0.32171,0.00507,4864.52,0.08696,-0.097282,0.639627,-0.75753,-0.24491,0.95663,-0.16364,2.13,2.68,2.57,3.12,3.14,2.96,2.83,3.81,3.3,3.87,4.11,3.9,3.97,3.74,3.78,3242,13.508333,61404.582333,246.812943,1003.49115,-194.909912,1.1408604695736,2.25165345779177,2.28601262663953,16.634815,799.588013,163.992493,122.776329,1190.807983,0.239757,"CRUZEXT"
235,17,3,24.588,4867.7,0.661966,-0.064244,0.687755,-0.290976,-0.92686,0.32382,0.00623,4864.54,0.091722,-0.096928,0.639192,-0.757381,-0.25605,0.95295,-0.1695,2.13,2.68,2.56,3.12,3.14,2.96,2.83,3.81,3.3,3.87,4.12,3.9,3.96,3.74,3.78,3244,13.516667,61404.590667,246.812943,1003.49115,-194.909912,1.14065181293334,2.25163437985426,2.28587176103014,16.610455,799.565979,164.003601,122.744301,1190.766724,0.169725,"CRUZEXT"
236,17,3,24.606,4867.72,0.662014,-0.064389,0.687625,-0.291143,-0.93032,0.32647,0.00774,4864.56,0.096589,-0.096513,0.638635,-0.757298,-0.2636,0.94988,-0.17787,2.13,2.68,2.56,3.13,3.14,2.96,2.82,3.81,3.3,3.87,4.11,3.9,3.96,3.74,3.78,3248,13.533333,61404.607333,246.812943,1003.49115,-194.909912,1.14021618167341,2.25157747369988,2.28559433074575,16.544685,799.515686,163.977341,122.667084,1190.692383,0.043676,"CRUZEXT"
237,17,3,24.612,4867.74,0.662086,-0.064486,0.687497,-0.291258,-0.93145,0.32307,0.0087,4864.58,0.101624,-0.096067,0.637825,-0.757379,-0.26936,0.94552,-0.17915,2.13,2.68,2.55,3.13,3.14,2.96,2.82,3.8,3.3,3.87,4.12,3.9,3.97,3.74,3.78,3250,13.541667,61404.615667,246.812943,1003.49115,-194.909912,1.13997922199082,2.25155271960718,2.28543718341729,16.394373,799.723267,164.165298,122.623383,1190.656006,-0.023546,"CRUZEXT"
238,17,3,24.663,4867.76,0.661098,-0.064266,0.688694,-0.290723,-0.93661,0.32157,0.01372,4864.6,0.106676,-0.095527,0.63693,-0.757506,-0.27832,0.9337,-0.17908,2.13,2.68,2.54,3.13,3.14,2.95,2.81,3.81,3.3,3.86,4.12,3.9,3.97,3.74,3.78,3262,13.591667,61404.665667,246.812943,1003.49115,-194.909912,1.13863899503956,2.25148429970037,2.28447609392349,16.210524,799.590637,164.066559,122.39138,1190.444824,-0.442737,"CRUZEXT"
239,17,3,24.668,4867.78,0.661201,-0.064206,0.688601,-0.290723,-0.93131,0.3234,0.01346,4864.62,0.11162,-0.094999,0.636264,-0.75742,-0.28254,0.92629,-0.18019,2.13,2.68,2.53,3.13,3.13,2.95,2.81,3.81,3.3,3.86,4.11,3.9,3.97,3.74,3.78,3263,13.595833,61404.669833,246.812943,1003.49115,-194.909912,1.1385558522309,2.25148951936638,2.28440703126687,16.186716,799.579834,164.061951,122.384705,1190.422363,-0.482862,"CRUZEXT"
240,17,3,24.689,4867.8,0.660688,-0.063974,0.689228,-0.290456,-0.92981,0.32452,0.01583,4864.64,0.116673,-0.094782,0.635685,-0.757171,-0.26824,0.92132,-0.17869,2.14,2.68,2.52,3.13,3.13,2.95,2.81,3.8,3.3,3.86,4.12,3.9,3.97,3.74,3.78,3268,13.616667,61404.690667,246.812943,1003.49115,-194.909912,1.13814327836637,2.25145199671096,2.28412686041552,16.090868,799.521301,164.028534,122.340378,1190.313232,-0.650253,"CRUZEXT"
241,17,3,24.695,4867.82,0.660849,-0.063774,0.689134,-0.290353,-0.9307,0.32373,0.01524,4864.66,0.121565,-0.094744,0.635072,-0.756921,-0.27797,0.91221,-0.17296,2.14,2.68,2.51,3.14,3.13,2.95,2.8,3.8,3.3,3.86,4.12,3.9,3.97,3.74,3.78,3270,13.625,61404.699,246.812943,1003.49115,-194.909912,1.13799411690008,2.2514286230576,2.2840352011741,16.058777,799.492126,164.023865,122.330429,1190.262451,-0.718022,"CRUZEXT"
242,17,3,24.746,4867.84,0.661006,-0.06354,0.689047,-0.290255,-0.93018,0.32375,0.01134,4864.68,0.126159,-0.094729,0.634833,-0.756371,-0.30563,0.91075,-0.17029,2.14,2.68,2.5,3.14,3.13,2.95,2.8,3.8,3.3,3.85,4.12,3.9,3.97,3.74,3.78,3282,13.675,61404.749,246.812943,1003.49115,-194.909912,1.1375228326868,2.25161455164586,2.28348858553276,15.884089,799.367615,164.069702,122.399475,1190.011475,-1.146013,"CRUZEXT"
243,17,3,24.751,4867.86,0.660688,-0.063241,0.689452,-0.290082,-0.9304,0.32544,0.01233,4864.7,0.130957,-0.09488,0.634794,-0.755569,-0.30324,0.92805,-0.16989,2.14,2.68,2.5,3.14,3.13,2.94,2.8,3.8,3.3,3.85,4.12,3.9,3.97,3.74,3.78,3283,13.679167,61404.753167,246.812943,1003.49115,-194.909912,1.13749625875819,2.25161611202848,2.28346657439888,15.871978,799.358704,164.067459,122.410645,1189.984375,-1.179473,"CRUZEXT"
244,17,3,24.769,4867.88,0.66083,-0.062921,0.689422,-0.289899,-0.93068,0.32546,0.0125,4864.72,0.13569,-0.095266,0.634406,-0.755011,-0.30137,0.92475,-0.16872,2.14,2.68,2.49,3.14,3.13,2.94,2.79,3.8,3.3,3.85,4.12,3.9,3.98,3.75,3.78,3287,13.695833,61404.769833,246.812943,1003.49115,-194.909912,1.13751335178315,2.25166106450568,2.28343529771077,15.803961,799.31781,164.087357,122.473358,1189.907593,-1.276989,"CRUZEXT"
245,17,3,24.774,4867.9,0.660542,-0.06258,0.689798,-0.289737,-0.93182,0.32488,0.01031,4864.74,0.139872,-0.095782,0.634098,-0.754441,-0.31346,0.92269,-0.17351,2.14,2.68,2.48,3.14,3.12,2.94,2.79,3.8,3.3,3.85,4.12,3.91,3.98,3.75,3.78,3288,13.7,61404.774,246.812943,1003.49115,-194.909912,1.13753644594383,2.25169664075387,2.28341791202391,15.789124,799.309692,164.095383,122.487549,1189.903809,-1.293318,"CRUZEXT"
246,17,3,24.824,4867.92,0.660684,-0.062304,0.689727,-0.289639,-0.92819,0.32896,0.01189,4864.76,0.143933,-0.096327,0.634629,-0.753161,-0.32962,0.91117,-0.17739,2.14,2.68,2.47,3.15,3.12,2.94,2.79,3.8,3.3,3.85,4.12,3.91,3.98,3.75,3.78,3300,13.75,61404.824,246.812943,1003.49115,-194.909912,1.13775627489003,2.25188392565426,2.28340202314731,15.660934,799.239563,164.136078,122.645401,1189.798706,-1.45076,"CRUZEXT"
247,17,3,24.831,4867.94,0.660808,-0.062068,0.689675,-0.289532,-0.92519,0.33472,0.0143,4864.78,0.148129,-0.096805,0.635411,-0.751625,-0.34727,0.9054,-0.17557,2.14,2.68,2.46,3.15,3.12,2.94,2.79,3.8,3.3,3.85,4.12,3.91,3.98,3.75,3.78,3302,13.758333,61404.832333,246.812943,1003.49115,-194.909912,1.13775205743276,2.25187723848087,2.28340538806018,15.645461,799.227295,164.143066,122.656342,1189.779053,-1.468818,"CRUZEXT"
248,17,3,24.848,4867.96,0.660394,-0.061831,0.690127,-0.28945,-0.92824,0.33364,0.01203,4864.8,0.152505,-0.097429,0.63619,-0.750008,-0.3509,0.90341,-0.17092,2.14,2.68,2.45,3.15,3.11,2.94,2.79,3.8,3.3,3.85,4.12,3.91,3.98,3.75,3.78,3306,13.775,61404.849,246.812943,1003.49115,-194.909912,1.13774082060643,2.25186385523742,2.28340996919557,15.609071,799.215332,164.154846,122.675682,1189.742432,-1.502626,"CRUZEXT"
249,17,3,24.855,4867.98,0.660569,-0.061615,0.690055,-0.289268,-0.92967,0.32936,0.01641,4864.82,0.156901,-0.097986,0.636655,-0.748633,-0.35688,0.90901,-0.16886,2.14,2.68,2.44,3.15,3.11,2.94,2.79,3.8,3.3,3.85,4.12,3.91,3.98,3.75,3.78,3308,13.783333,61404.857333,246.812943,1003.49115,-194.909912,1.13772945459914,2.25182217486659,2.28344242940038,15.600404,799.200745,164.165359,122.685204,1189.713989,-1.514951,"CRUZEXT"
250,17,3,24.902,4868,0.660185,-0.061401,0.690541,-0.289032,-0.92988,0.32924,0.0144,4864.84,0.161424,-0.09849,0.636791,-0.747489,-0.36274,0.91833,-0.17015,2.14,2.68,2.42,3.15,3.11,2.94,2.79,3.8,3.3,3.85,4.12,3.91,3.99,3.75,3.78,3319,13.829167,61404.903167,246.812943,1003.49115,-194.909912,1.13747900638512,2.251640768518,2.28342890839532,15.558421,799.140381,164.251633,122.639992,1189.639282,-1.552272,"CRUZEXT"
251,17,3,24.908,4868.02,0.660376,-0.061245,0.690455,-0.288832,-0.93037,0.33024,0.01946,4864.86,0.166051,-0.099051,0.636632,-0.746536,-0.36332,0.9115,-0.17599,2.14,2.68,2.4,3.16,3.1,2.94,2.79,3.8,3.3,3.85,4.12,3.91,3.99,3.75,3.78,3321,13.8375,61404.9115,246.812943,1003.49115,-194.909912,1.13744343822462,2.2516034257017,2.28343842884146,15.555453,799.131348,164.267136,122.628548,1189.633545,-1.547187,"CRUZEXT"
252,17,3,24.927,4868.04,0.660584,-0.061107,0.690342,-0.288656,-0.93305,0.3283,0.01953,4864.88,0.170645,-0.099667,0.636337,-0.745669,-0.36736,0.89192,-0.18012,2.14,2.67,2.38,3.16,3.1,2.94,2.79,3.8,3.3,3.85,4.12,3.91,3.99,3.75,3.78,3325,13.854167,61404.928167,246.812943,1003.49115,-194.909912,1.13739909930091,2.25161248512932,2.28339531454504,15.541303,799.11731,164.31192,122.621376,1189.62854,-1.564196,"CRUZEXT"
253,17,3,24.932,4868.06,0.660323,-0.060909,0.690714,-0.288405,-0.93011,0.32753,0.01883,4864.9,0.175734,-0.100372,0.635911,-0.744755,-0.36729,0.88121,-0.17681,2.14,2.67,2.36,3.16,3.09,2.94,2.79,3.8,3.3,3.85,4.12,3.91,3.99,3.75,3.78,3326,13.858333,61404.932333,246.812943,1003.49115,-194.909912,1.13739088680154,2.25160609380672,2.28339530638601,15.543537,799.11322,164.314758,122.621857,1189.623047,-1.568378,"CRUZEXT"
254,17,3,24.98,4868.08,0.660533,-0.060849,0.690564,-0.288297,-0.92793,0.32839,0.01845,4864.92,0.180636,-0.101078,0.635402,-0.74392,-0.37718,0.88632,-0.17882,2.14,2.66,2.34,3.16,3.09,2.94,2.79,3.79,3.3,3.85,4.12,3.91,3.99,3.75,3.78,3338,13.908333,61404.982333,246.812943,1003.49115,-194.909912,1.13703271788513,2.25129061981037,2.28343115826768,15.509735,799.060364,164.385727,122.545479,1189.520996,-1.591062,"CRUZEXT"
255,17,3,24.985,4868.1,0.66011,-0.060803,0.691002,-0.288225,-0.92744,0.32894,0.01803,4864.94,0.185433,-0.101626,0.635165,-0.742867,-0.39598,0.89706,-0.18152,2.13,2.66,2.33,3.16,3.09,2.94,2.79,3.8,3.3,3.85,4.11,3.91,4,3.76,3.78,3339,13.9125,61404.9865,246.812943,1003.49115,-194.909912,1.1369898440895,2.25125718779211,2.28343115447315,15.50921,799.054199,164.390747,122.531616,1189.516846,-1.587391,"CRUZEXT"
256,17,3,25.005,4868.12,0.660306,-0.060821,0.690817,-0.288216,-0.92789,0.3309,0.0176,4864.96,0.190648,-0.102163,0.634607,-0.74195,-0.40482,0.88543,-0.17864,2.13,2.66,2.32,3.17,3.08,2.94,2.79,3.8,3.3,3.86,4.11,3.92,3.99,3.76,3.78,3344,13.933333,61405.007333,246.812943,1003.49115,-194.909912,1.13682558340486,2.25118891186119,2.28337199193323,15.501035,799.029419,164.417847,122.478447,1189.514771,-1.586476,"CRUZEXT"
257,17,3,25.011,4868.14,0.660481,-0.060826,0.690658,-0.288197,-0.92976,0.33104,0.01803,4864.98,0.196651,-0.103136,0.632878,-0.741726,-0.39185,0.86335,-0.18025,2.13,2.65,2.31,3.17,3.08,2.94,2.79,3.8,3.3,3.86,4.11,3.91,4,3.76,3.79,3345,13.9375,61405.0115,246.812943,1003.49115,-194.909912,1.13681079620044,2.25118307044264,2.28336636261815,15.499113,799.02301,164.420776,122.477173,1189.509399,-1.591923,"CRUZEXT"
258,17,3,25.063,4868.16,0.659829,-0.060775,0.691307,-0.288142,-0.93072,0.32898,0.01894,4865,0.202865,-0.104628,0.630163,-0.742154,-0.38353,0.84752,-0.18143,2.13,2.65,2.29,3.17,3.08,2.94,2.79,3.8,3.3,3.86,4.11,3.91,4,3.76,3.78,3358,13.991667,61405.065667,246.812943,1003.49115,-194.909912,1.13635435419549,2.2508880280531,2.28330585379629,15.435228,798.918091,164.4897,122.44725,1189.303345,-1.749159,"CRUZEXT"
259,17,3,25.068,4868.18,0.660038,-0.060715,0.691149,-0.288057,-0.93061,0.32539,0.0185,4865.02,0.208257,-0.106199,0.628081,-0.742203,-0.39277,0.83275,-0.19186,2.13,2.64,2.28,3.17,3.08,2.94,2.79,3.8,3.3,3.86,4.11,3.92,4,3.76,3.78,3359,13.995833,61405.069833,246.812943,1003.49115,-194.909912,1.13632902398539,2.25089648132201,2.28327794842191,15.421379,798.914368,164.498322,122.454262,1189.284668,-1.776832,"CRUZEXT"
260,17,3,25.089,4868.2,0.659655,-0.060581,0.69164,-0.287784,-0.92623,0.32584,0.01934,4865.04,0.214006,-0.107448,0.627304,-0.741044,-0.42151,0.84326,-0.20204,2.14,2.64,2.27,3.17,3.07,2.94,2.8,3.8,3.3,3.87,4.11,3.92,4,3.76,3.79,3364,14.016667,61405.090667,246.812943,1003.49115,-194.909912,1.1362488146159,2.25085812781067,2.28325394401884,15.371212,798.877014,164.533905,122.503036,1189.170898,-1.891307,"CRUZEXT"
261,17,3,25.094,4868.22,0.659911,-0.060496,0.691454,-0.287661,-0.92718,0.32825,0.02124,4865.06,0.220338,-0.108762,0.626821,-0.739403,-0.42625,0.85062,-0.19913,2.14,2.64,2.26,3.18,3.07,2.94,2.8,3.8,3.3,3.87,4.11,3.92,4,3.77,3.78,3365,14.020833,61405.094833,246.812943,1003.49115,-194.909912,1.13625012623847,2.25085444906005,2.28325859254786,15.354534,798.875183,164.544617,122.518921,1189.146851,-1.914388,"CRUZEXT"
262,17,3,25.142,4868.24,0.660159,-0.060423,0.691269,-0.287554,-0.93239,0.32774,0.01814,4865.08,0.226946,-0.110319,0.625664,-0.738153,-0.41486,0.85903,-0.1989,2.14,2.64,2.26,3.18,3.07,2.94,2.8,3.81,3.3,3.87,4.11,3.92,4,3.77,3.78,3377,14.070833,61405.144833,246.812943,1003.49115,-194.909912,1.13634194369348,2.2506345087764,2.28354682825091,15.200776,798.80188,164.563019,122.871361,1188.606689,-2.359334,"CRUZEXT"
263,17,3,25.147,4868.26,0.65981,-0.060329,0.6917,-0.287337,-0.93044,0.32429,0.01719,4865.1,0.232701,-0.111985,0.624177,-0.737369,-0.43356,0.86891,-0.20262,2.14,2.63,2.25,3.18,3.07,2.94,2.8,3.8,3.3,3.88,4.11,3.92,4,3.77,3.78,3378,14.075,61405.149,246.812943,1003.49115,-194.909912,1.13634992739964,2.25062232743557,2.2835650273236,15.185104,798.785583,164.568298,122.899986,1188.564331,-2.396439,"CRUZEXT"
264,17,3,25.168,4868.28,0.659977,-0.060338,0.691549,-0.287315,-0.92426,0.32708,0.0161,4865.12,0.238487,-0.113441,0.622841,-0.736427,-0.45424,0.88691,-0.20837,2.14,2.63,2.25,3.18,3.07,2.94,2.81,3.81,3.3,3.88,4.11,3.92,4,3.77,3.78,3383,14.095833,61405.169833,246.812943,1003.49115,-194.909912,1.13639957697935,2.25077643959641,2.28345104197743,15.117748,798.758423,164.552109,123.049614,1188.395874,-2.633688,"CRUZEXT"
265,17,3,25.173,4868.3,0.659508,-0.060308,0.692029,-0.287243,-0.92493,0.3299,0.01892,4865.14,0.244526,-0.114839,0.621137,-0.735668,-0.46225,0.87319,-0.21139,2.14,2.63,2.24,3.18,3.07,2.95,2.81,3.81,3.3,3.89,4.11,3.92,4,3.77,3.78,3384,14.1,61405.174,246.812943,1003.49115,-194.909912,1.13642228531081,2.2508442659913,2.28340153176194,15.106142,798.754089,164.549896,123.084106,1188.368896,-2.688879,"CRUZEXT"
266,17,3,25.208,4868.32,0.659752,-0.060291,0.691809,-0.287216,-0.93098,0.32682,0.01747,4865.16,0.250695,-0.116353,0.618676,-0.735428,-0.4729,0.85678,-0.21967,2.14,2.62,2.24,3.18,3.07,2.95,2.81,3.81,3.3,3.89,4.1,3.92,4,3.78,3.78,3393,14.1375,61405.2115,246.812943,1003.49115,-194.909912,1.13668994764768,2.25124732843154,2.28320963338247,15.041988,798.747803,164.458557,123.40274,1188.091187,-3.115819,"CRUZEXT"
267,17,3,25.213,4868.34,0.659988,-0.06029,0.69157,-0.287248,-0.93581,0.32467,0.018,4865.18,0.256131,-0.117776,0.616288,-0.735333,-0.48003,0.82551,-0.22433,2.14,2.62,2.23,3.18,3.07,2.95,2.81,3.81,3.3,3.89,4.11,3.93,4,3.78,3.78,3394,14.141667,61405.215667,246.812943,1003.49115,-194.909912,1.13674444282187,2.25132153865753,2.28317830484348,15.03119,798.74762,164.44899,123.44194,1188.071167,-3.161155,"CRUZEXT"
268,17,3,25.247,4868.36,0.659615,-0.06022,0.691942,-0.287223,-0.92786,0.32593,0.01847,4865.2,0.261906,-0.118972,0.614544,-0.734566,-0.50092,0.83172,-0.21971,2.14,2.62,2.23,3.18,3.07,2.95,2.81,3.81,3.3,3.89,4.11,3.93,4,3.78,3.78,3402,14.175,61405.249,246.812943,1003.49115,-194.909912,1.13749529164528,2.25220436348538,2.28288413440049,15.132198,798.516602,164.148987,123.884491,1187.908325,-3.604134,"CRUZEXT"
269,17,3,25.252,4868.38,0.659862,-0.060155,0.691723,-0.287199,-0.92674,0.32694,0.02166,4865.22,0.268117,-0.120596,0.612486,-0.733779,-0.50328,0.83477,-0.20987,2.14,2.61,2.23,3.18,3.07,2.95,2.82,3.81,3.3,3.89,4.1,3.93,4,3.78,3.78,3403,14.179167,61405.253167,246.812943,1003.49115,-194.909912,1.13758712397757,2.25232772173042,2.28283286392808,15.136898,798.518555,164.133682,123.943771,1187.884033,-3.669783,"CRUZEXT"
270,17,3,25.287,4868.4,0.659767,-0.059935,0.691928,-0.286969,-0.9307,0.32532,0.02239,4865.24,0.274308,-0.1225,0.609584,-0.733591,-0.505,0.81403,-0.23233,2.14,2.61,2.22,3.18,3.06,2.95,2.82,3.81,3.3,3.89,4.1,3.93,4,3.78,3.78,3412,14.216667,61405.290667,246.812943,1003.49115,-194.909912,1.13860688887679,2.25321472210774,2.28274017605457,15.156657,798.544067,164.02388,124.495506,1187.662842,-4.128236,"CRUZEXT"
271,17,3,25.292,4868.42,0.66009,-0.059691,0.691691,-0.286849,-0.9348,0.32629,0.02424,4865.26,0.279873,-0.124334,0.606931,-0.733381,-0.53092,0.79782,-0.24946,2.14,2.61,2.22,3.18,3.07,2.95,2.82,3.81,3.3,3.9,4.1,3.93,4,3.78,3.78,3413,14.220833,61405.294833,246.812943,1003.49115,-194.909912,1.13868401257029,2.253320522014,2.28269478420455,15.156401,798.549744,164.010925,124.544601,1187.643677,-4.182953,"CRUZEXT"
272,17,3,25.328,4868.44,0.660414,-0.059447,0.69146,-0.286711,-0.93208,0.32786,0.02635,4865.28,0.285963,-0.125505,0.605056,-0.73238,-0.53885,0.78711,-0.24786,2.14,2.61,2.22,3.19,3.06,2.96,2.82,3.81,3.3,3.9,4.1,3.93,4,3.79,3.78,3421,14.254167,61405.328167,246.812943,1003.49115,-194.909912,1.1397170262396,2.25419696443072,2.28262088165204,15.117976,798.825562,164.148102,125.063225,1187.472412,-4.5818,"CRUZEXT"
273,17,3,25.332,4868.46,0.660351,-0.059151,0.691633,-0.286499,-0.92719,0.33017,0.02351,4865.3,0.292231,-0.126775,0.603281,-0.73115,-0.52761,0.79937,-0.23329,2.14,2.61,2.22,3.18,3.06,2.96,2.82,3.81,3.3,3.9,4.1,3.94,4,3.78,3.78,3422,14.258333,61405.332333,246.812943,1003.49115,-194.909912,1.13989665551579,2.2543232625264,2.28263369998086,15.129983,798.830811,164.13768,125.147896,1187.444824,-4.637022,"CRUZEXT"
274,17,3,25.381,4868.48,0.660693,-0.05883,0.691433,-0.286258,-0.93033,0.32819,0.024,4865.32,0.298011,-0.128427,0.601035,-0.730379,-0.54403,0.80634,-0.23506,2.14,2.61,2.22,3.18,3.07,2.96,2.82,3.81,3.3,3.9,4.1,3.94,4,3.78,3.78,3434,14.308333,61405.382333,246.812943,1003.49115,-194.909912,1.14199916212981,2.25570057403147,2.28288009919908,15.243441,798.921387,164.081879,126.126602,1187.113647,-5.245872,"CRUZEXT"
275,17,3,25.387,4868.5,0.660582,-0.05854,0.691664,-0.286018,-0.92957,0.32872,0.02182,4865.34,0.303691,-0.13003,0.598777,-0.729609,-0.55673,0.79801,-0.2481,2.14,2.61,2.22,3.19,3.06,2.96,2.83,3.81,3.3,3.9,4.1,3.94,4,3.79,3.78,3436,14.316667,61405.390667,246.812943,1003.49115,-194.909912,1.14234735075179,2.2559202845895,2.28292856712692,15.265713,798.941711,164.080032,126.274597,1187.077637,-5.323411,"CRUZEXT"
276,17,3,25.408,4868.52,0.660934,-0.058326,0.69138,-0.285933,-0.92827,0.33187,0.0218,4865.36,0.308549,-0.131536,0.59698,-0.728774,-0.57295,0.77522,-0.25453,2.14,2.61,2.22,3.19,3.06,2.96,2.83,3.81,3.31,3.9,4.1,3.94,4,3.79,3.78,3441,14.3375,61405.4115,246.812943,1003.49115,-194.909912,1.14325719084368,2.25637301155233,2.28317462970537,15.333023,798.983521,164.066193,126.638519,1186.990356,-5.464472,"CRUZEXT"
277,17,3,25.413,4868.54,0.661301,-0.058114,0.69108,-0.285854,-0.92972,0.33371,0.02283,4865.38,0.313861,-0.132788,0.595523,-0.727469,-0.58133,0.78763,-0.25635,2.14,2.61,2.22,3.19,3.07,2.96,2.83,3.81,3.3,3.91,4.09,3.94,3.99,3.79,3.78,3442,14.341667,61405.415667,246.812943,1003.49115,-194.909912,1.14345764393863,2.25645090706828,2.28325032512526,15.353071,798.99353,164.060379,126.713455,1186.974121,-5.482671,"CRUZEXT"
278,17,3,25.447,4868.56,0.66127,-0.05792,0.69115,-0.285793,-0.9312,0.33196,0.01951,4865.4,0.319039,-0.134417,0.593762,-0.726356,-0.57207,0.77,-0.25811,2.14,2.61,2.22,3.19,3.07,2.96,2.83,3.82,3.31,3.91,4.09,3.95,3.99,3.79,3.78,3450,14.375,61405.449,246.812943,1003.49115,-194.909912,1.1451026088264,2.25732775756168,2.28363388098406,15.489438,799.071045,164.026047,127.33802,1186.878174,-5.700408,"CRUZEXT"
279,17,3,25.452,4868.58,0.661647,-0.057776,0.690819,-0.285752,-0.92916,0.3313,0.0195,4865.42,0.323381,-0.136318,0.591832,-0.725657,-0.59642,0.76597,-0.25446,2.14,2.61,2.22,3.19,3.07,2.96,2.83,3.82,3.3,3.91,4.09,3.95,3.99,3.79,3.78,3451,14.379167,61405.453167,246.812943,1003.49115,-194.909912,1.14526192861986,2.25739255836543,2.28369076237145,15.507976,799.085815,164.018555,127.402084,1186.858765,-5.722944,"CRUZEXT"
280,17,3,25.509,4868.6,0.661539,-0.057633,0.690963,-0.285682,-0.92937,0.33076,0.01932,4865.44,0.328063,-0.137729,0.589709,-0.725016,-0.6009,0.76791,-0.25961,2.14,2.61,2.22,3.19,3.07,2.96,2.83,3.82,3.3,3.92,4.09,3.95,3.99,3.79,3.78,3465,14.4375,61405.5115,246.812943,1003.49115,-194.909912,1.14750128785674,2.25814786478278,2.28464053502964,15.789192,799.216492,163.957062,128.354553,1186.468262,-6.092483,"CRUZEXT"
281,17,3,25.514,4868.62,0.661945,-0.057558,0.690593,-0.285653,-0.92901,0.33111,0.02155,4865.46,0.331804,-0.139303,0.587603,-0.724723,-0.59914,0.76059,-0.26461,2.14,2.61,2.23,3.19,3.07,2.96,2.83,3.82,3.3,3.92,4.09,3.96,3.99,3.79,3.77,3466,14.441667,61405.515667,246.812943,1003.49115,-194.909912,1.14763751325415,2.25817652637368,2.28471520913704,15.804768,799.227295,163.961395,128.408569,1186.446533,-6.105223,"CRUZEXT"
282,17,3,25.519,4868.64,0.662382,-0.057478,0.690185,-0.285643,-0.9293,0.33053,0.01981,4865.48,0.335979,-0.140695,0.585646,-0.724114,-0.60322,0.76775,-0.2625,2.14,2.61,2.23,3.18,3.07,2.97,2.83,3.82,3.31,3.92,4.09,3.96,3.99,3.79,3.77,3467,14.445833,61405.519833,246.812943,1003.49115,-194.909912,1.14779504132124,2.258252589018,2.28475899630566,15.835006,799.240479,163.962723,128.470032,1186.432495,-6.127659,"CRUZEXT"
283,17,3,25.548,4868.66,0.662347,-0.057414,0.690206,-0.285686,-0.92897,0.33135,0.02138,4865.5,0.339647,-0.142145,0.583966,-0.723476,-0.58916,0.73141,-0.2654,2.15,2.61,2.24,3.19,3.07,2.97,2.84,3.82,3.3,3.92,4.09,3.96,3.98,3.79,3.77,3474,14.475,61405.549,246.812943,1003.49115,-194.909912,1.1487887547689,2.25861330353939,2.28515241589471,15.981856,799.301697,163.966431,128.872238,1186.294434,-6.267351,"CRUZEXT"
284,17,3,25.553,4868.68,0.662808,-0.057332,0.68978,-0.285661,-0.92936,0.32854,0.01845,4865.52,0.343058,-0.143658,0.582626,-0.722648,-0.62364,0.72588,-0.27963,2.15,2.61,2.24,3.18,3.07,2.97,2.84,3.82,3.3,3.92,4.09,3.96,3.98,3.79,3.77,3475,14.479167,61405.553167,246.812943,1003.49115,-194.909912,1.14892795268154,2.25869108448971,2.28518040437858,16.005018,799.310669,163.964569,128.929962,1186.278931,-6.295115,"CRUZEXT"
285,17,3,25.606,4868.7,0.662867,-0.057219,0.689765,-0.285583,-0.93019,0.3269,0.01873,4865.54,0.346676,-0.145097,0.581284,-0.721714,-0.62524,0.71833,-0.2783,2.15,2.61,2.25,3.18,3.07,2.97,2.84,3.82,3.3,3.92,4.09,3.96,3.98,3.79,3.77,3488,14.533333,61405.607333,246.812943,1003.49115,-194.909912,1.15079836658489,2.25969526758167,2.28559432062335,16.264206,799.464722,163.923721,129.666519,1186.120117,-6.599065,"CRUZEXT"
286,17,3,25.611,4868.72,0.663301,-0.05715,0.68935,-0.285591,-0.92711,0.3287,0.01681,4865.56,0.35063,-0.14688,0.579666,-0.720745,-0.62666,0.7245,-0.27787,2.15,2.61,2.26,3.18,3.08,2.97,2.84,3.82,3.3,3.92,4.09,3.97,3.98,3.79,3.77,3489,14.5375,61405.6115,246.812943,1003.49115,-194.909912,1.15090921489891,2.25973974545563,2.28563359272467,16.285959,799.469971,163.92009,129.713821,1186.101563,-6.619846,"CRUZEXT"
287,17,3,25.616,4868.74,0.66377,-0.057115,0.68888,-0.285644,-0.92794,0.33046,0.01482,4865.58,0.354762,-0.148714,0.577612,-0.719995,-0.6208,0.69974,-0.28495,2.15,2.62,2.27,3.18,3.08,2.97,2.84,3.82,3.3,3.93,4.09,3.97,3.98,3.79,3.77,3491,14.545833,61405.619833,246.812943,1003.49115,-194.909912,1.15108676388508,2.25983117674317,2.28567644439063,16.327339,799.492493,163.909836,129.795685,1186.066772,-6.667323,"CRUZEXT"
288,17,3,25.669,4868.76,0.663816,-0.057031,0.688807,-0.28573,-0.9278,0.33351,0.01475,4865.6,0.357936,-0.1512,0.575629,-0.719494,-0.63236,0.66814,-0.30185,2.15,2.62,2.27,3.18,3.08,2.97,2.84,3.82,3.3,3.93,4.08,3.98,3.97,3.79,3.77,3503,14.595833,61405.669833,246.812943,1003.49115,-194.909912,1.15196562234849,2.26039616643336,2.2857764242487,16.495953,799.609741,163.812241,130.176147,1185.957397,-6.887361,"CRUZEXT"
289,17,3,25.674,4868.78,0.664315,-0.056915,0.688339,-0.28572,-0.92906,0.33158,0.014,4865.62,0.362137,-0.153759,0.57365,-0.71843,-0.65557,0.64842,-0.2979,2.15,2.62,2.28,3.18,3.08,2.97,2.84,3.82,3.3,3.93,4.08,3.98,3.97,3.79,3.77,3504,14.6,61405.674,246.812943,1003.49115,-194.909912,1.15203400454299,2.26047603031474,2.28574855482472,16.505144,799.617371,163.805283,130.213547,1185.94458,-6.924808,"CRUZEXT"
