Sample,Hour,Minute,Sec,Stamp,Quat1,Quat2,Quat3,Quat4,AccX,AccY,AccZ,Stamp2,Quat2_1,Quat2_2,Quat2_3,Quat2_4,Acc2_X,Acc2_Y,Acc2_Z,A0,A1,A2,A3,A4,A5,A6,A7,A8,A9,A10,A11,A12,A13,A14,Frame,Time,realTime,BrazoX,BrazoY,BrazoZ,angBrazoX,angBrazoY,angBrazoZ,EspaldaX,EspaldaY,EspaldaZ,refX,refY,refZ,type
2,16,51,0.221,4123.18,0.676988,-0.062971,0.715409,-0.160974,-0.97224,0.13895,0.02605,4120.04,0.609465,-0.30461,0.496887,-0.537465,-0.90785,0.15759,-0.33503,2.21,2.61,2.82,2.78,3.17,3.01,3.01,3.81,3.15,3.9,4.02,3.94,3.77,3.82,3.72,2029,8.454167,60660.222167,252.814087,987.175293,-190.799164,1.20665128937183,2.37876715340744,2.20446842606821,20.439585,793.738892,133.796021,154.136795,1187.462769,-26.746035,"CRUZEXT"
3,16,51,0.234,4123.2,0.677136,-0.06282,0.715364,-0.160611,-0.9812,0.13396,0.01688,4120.06,0.609778,-0.304149,0.497088,-0.537185,-0.90402,0.15541,-0.32375,2.21,2.61,2.82,2.78,3.17,3.01,3.01,3.81,3.15,3.9,4.02,3.94,3.77,3.82,3.72,2032,8.466667,60660.234667,252.880661,987.145752,-190.854233,1.20683598733571,2.3788700186055,2.20448953914658,20.475985,793.799316,133.835358,154.248383,1187.458618,-26.791723,"CRUZEXT"
4,16,51,0.239,4123.22,0.677156,-0.06255,0.715421,-0.160376,-0.98349,0.13731,0.01528,4120.08,0.609972,-0.303809,0.497235,-0.537021,-0.90665,0.14666,-0.31812,2.21,2.61,2.82,2.79,3.17,3.01,3,3.81,3.15,3.9,4.02,3.94,3.77,3.82,3.72,2034,8.475,60660.243,252.912308,987.111389,-190.889709,1.20699351952739,2.37900699996416,2.20445595575502,20.49894,793.835632,133.867584,154.319336,1187.453491,-26.832228,"CRUZEXT"
5,16,51,0.244,4123.24,0.677152,-0.062245,0.715503,-0.160147,-0.97588,0.14746,0.01191,4120.1,0.609946,-0.304146,0.497139,-0.53695,-0.90946,0.14462,-0.32106,2.21,2.61,2.82,2.79,3.17,3.01,3.01,3.81,3.15,3.9,4.02,3.94,3.78,3.82,3.72,2035,8.479167,60660.247167,252.923904,987.091125,-190.909851,1.20706665504656,2.37906422985554,2.20444701417503,20.511709,793.857605,133.885117,154.348953,1187.446045,-26.85284,"CRUZEXT"
6,16,51,0.249,4123.26,0.677216,-0.061847,0.715498,-0.160051,-0.96854,0.15301,0.01514,4120.12,0.609996,-0.304048,0.497191,-0.536899,-0.92151,0.1479,-0.32738,2.21,2.61,2.82,2.79,3.17,3.01,3,3.81,3.15,3.9,4.02,3.94,3.78,3.82,3.72,2036,8.483333,60660.251333,252.927032,987.065674,-190.93515,1.20718663508802,2.37913789827108,2.2044534919788,20.51771,793.879822,133.901184,154.382431,1187.436157,-26.875494,"CRUZEXT"
7,16,51,0.257,4123.28,0.677174,-0.061838,0.715539,-0.160052,-0.96664,0.15203,0.02028,4120.14,0.610079,-0.304006,0.497143,-0.536874,-0.92664,0.15231,-0.33292,2.21,2.61,2.82,2.79,3.17,3.01,3,3.81,3.15,3.9,4.02,3.94,3.77,3.82,3.72,2038,8.491667,60660.259667,252.923096,987.011047,-190.977432,1.20746472267571,2.37933192404163,2.2044440543262,20.521761,793.957336,133.973267,154.451813,1187.416016,-26.922047,"CRUZEXT"
8,16,51,0.262,4123.3,0.677256,-0.061907,0.715433,-0.160147,-0.97079,0.14418,0.0208,4120.16,0.61016,-0.304193,0.496935,-0.536868,-0.92259,0.15608,-0.32999,2.21,2.61,2.82,2.79,3.17,3.01,3.01,3.81,3.15,3.9,4.01,3.94,3.77,3.82,3.72,2039,8.495833,60660.263833,252.911652,986.985229,-191.000732,1.20765207064707,2.37945815029569,2.2044423289821,20.525766,793.984375,134.010742,154.490891,1187.410278,-26.949064,"CRUZEXT"
9,16,51,0.27,4123.32,0.677268,-0.061986,0.715375,-0.160325,-0.97592,0.13817,0.01685,4120.18,0.610198,-0.304361,0.49682,-0.536836,-0.91692,0.15677,-0.32607,2.21,2.61,2.82,2.79,3.17,3.01,3.01,3.8,3.15,3.9,4.01,3.94,3.77,3.82,3.72,2041,8.504167,60660.272167,252.881165,986.908325,-191.039032,1.20801616524627,2.37975448659707,2.20438541092219,20.526176,794.040588,134.076675,154.55629,1187.386841,-27.002705,"CRUZEXT"
10,16,51,0.276,4123.34,0.67734,-0.062061,0.715272,-0.160456,-0.98176,0.1366,0.01207,4120.2,0.610169,-0.304733,0.496697,-0.536771,-0.91193,0.15219,-0.32354,2.21,2.61,2.82,2.79,3.17,3.01,3.01,3.81,3.15,3.9,4.02,3.94,3.77,3.82,3.72,2042,8.508333,60660.276333,252.864807,986.868896,-191.061523,1.20822854419384,2.37990779912175,2.20437257377643,20.528786,794.068604,134.116364,154.59436,1187.37793,-27.027081,"CRUZEXT"
11,16,51,0.284,4123.36,0.677706,-0.062049,0.714934,-0.160419,-0.98211,0.13661,0.00884,4120.22,0.610153,-0.304938,0.496636,-0.53673,-0.91024,0.14596,-0.31836,2.21,2.61,2.82,2.79,3.17,3.01,3.01,3.81,3.15,3.9,4.02,3.94,3.77,3.82,3.72,2044,8.516667,60660.284667,252.815872,986.785339,-191.102814,1.20865595255372,2.38020096761931,2.20436261987696,20.524893,794.119995,134.193375,154.653748,1187.355347,-27.066568,"CRUZEXT"
12,16,51,0.294,4123.38,0.677845,-0.062048,0.714789,-0.160477,-0.97653,0.13715,0.01594,4120.24,0.610122,-0.305217,0.496507,-0.536726,-0.90986,0.1441,-0.31621,2.21,2.61,2.82,2.79,3.17,3.01,3.01,3.8,3.15,3.9,4.02,3.94,3.77,3.82,3.72,2047,8.529167,60660.297167,252.716721,986.635071,-191.161667,1.20937933268386,2.3807090197024,2.20433271458551,20.517838,794.186768,134.310989,154.734451,1187.317749,-27.119368,"CRUZEXT"
13,16,51,0.3,4123.4,0.678113,-0.062098,0.714471,-0.160739,-0.97278,0.13897,-0.00837,4120.26,0.609997,-0.305771,0.49627,-0.536772,-0.9092,0.14652,-0.32111,2.21,2.61,2.82,2.79,3.17,3.01,3.01,3.81,3.15,3.9,4.02,3.94,3.77,3.82,3.72,2048,8.533333,60660.301333,252.677765,986.588318,-191.179123,1.20960051215666,2.38087727571908,2.20430989379786,20.512083,794.200928,134.343872,154.752609,1187.303589,-27.141556,"CRUZEXT"
14,16,51,0.354,4123.42,0.678262,-0.062187,0.714254,-0.161043,-0.97464,0.14544,0.01069,4120.28,0.609774,-0.306349,0.495975,-0.536968,-0.91532,0.1435,-0.33264,2.21,2.61,2.82,2.79,3.17,3.01,3.01,3.81,3.15,3.9,4.02,3.94,3.77,3.82,3.72,2061,8.5875,60660.3555,252.074387,986.032776,-191.346359,1.21185334145073,2.38236971235865,2.20430487242829,20.494995,794.17865,134.745911,154.714355,1187.072388,-27.277723,"CRUZEXT"
15,16,51,0.362,4123.44,0.678504,-0.062378,0.713941,-0.161339,-0.97904,0.14882,-0.00417,4120.3,0.609619,-0.306963,0.495485,-0.537245,-0.92261,0.13838,-0.33759,2.21,2.61,2.82,2.79,3.17,3.01,3.01,3.8,3.15,3.9,4.01,3.94,3.77,3.82,3.72,2063,8.595833,60660.363833,251.962509,985.959961,-191.359055,1.21213769453471,2.38256668252254,2.20429469281825,20.483091,794.17572,134.797012,154.674042,1187.041748,-27.288939,"CRUZEXT"
16,16,51,0.373,4123.46,0.67876,-0.062575,0.713602,-0.161683,-0.97199,0.13857,0.00821,4120.32,0.609495,-0.307283,0.495187,-0.537478,-0.92395,0.14244,-0.33435,2.21,2.61,2.82,2.79,3.17,3.01,3.01,3.81,3.15,3.9,4.01,3.94,3.77,3.82,3.72,2066,8.608333,60660.376333,251.79068,985.876892,-191.379379,1.21258658409015,2.38280677536724,2.20435251642007,20.468744,794.170044,134.855942,154.616516,1187.009033,-27.292624,"CRUZEXT"
17,16,51,0.434,4123.48,0.678856,-0.062809,0.713382,-0.162159,-0.96125,0.13248,0.01093,4120.34,0.609379,-0.30759,0.494922,-0.537678,-0.92763,0.15025,-0.3316,2.21,2.61,2.82,2.79,3.17,3.01,3.01,3.81,3.15,3.9,4.02,3.94,3.77,3.82,3.72,2080,8.666667,60660.434667,250.751114,985.853149,-191.515717,1.21492339732294,2.3834839518043,2.20524747119789,20.360775,794.086304,134.886414,154.229477,1187.019165,-27.306841,"CRUZEXT"
18,16,51,0.439,4123.5,0.678976,-0.062939,0.71317,-0.162536,-0.95947,0.13602,0.00926,4120.36,0.609179,-0.30804,0.494662,-0.537886,-0.93073,0.15196,-0.33402,2.21,2.61,2.82,2.79,3.17,3.01,3.01,3.81,3.15,3.9,4.02,3.94,3.77,3.82,3.72,2082,8.675,60660.443,250.634109,985.869629,-191.55751,1.2151219249235,2.38347191475056,2.20539583325829,20.341717,794.079346,134.883575,154.163162,1187.035156,-27.31406,"CRUZEXT"
19,16,51,0.444,4123.52,0.678965,-0.063141,0.713085,-0.16288,-0.9707,0.13339,0.01135,4120.38,0.608978,-0.308481,0.494434,-0.538072,-0.93241,0.15276,-0.334,2.21,2.61,2.82,2.79,3.17,3.01,3.01,3.81,3.15,3.9,4.01,3.94,3.77,3.82,3.72,2083,8.679167,60660.447167,250.727661,985.860779,-191.668732,1.21478043057864,2.38311140861644,2.20553924203644,20.326954,794.076477,134.876297,154.126175,1187.0448,-27.322075,"CRUZEXT"
20,16,51,0.449,4123.54,0.678898,-0.063444,0.713059,-0.163153,-0.97852,0.13062,0.01381,4120.4,0.608794,-0.308838,0.494279,-0.538216,-0.92756,0.15623,-0.334,2.21,2.61,2.82,2.79,3.17,3.01,3.01,3.81,3.15,3.9,4.02,3.94,3.77,3.82,3.72,2084,8.683333,60660.451333,250.519638,985.897827,-191.611099,1.21528975961521,2.38339692038197,2.20558897357015,20.321398,794.074402,134.872101,154.094559,1187.044312,-27.328447,"CRUZEXT"
21,16,51,0.472,4123.56,0.678832,-0.06381,0.713048,-0.163335,-0.97588,0.12748,0.01413,4120.42,0.608571,-0.309177,0.494207,-0.53834,-0.91959,0.1581,-0.3339,2.21,2.61,2.82,2.79,3.17,3.01,3.01,3.81,3.15,3.9,4.02,3.94,3.77,3.82,3.72,2089,8.704167,60660.472167,250.426407,985.951843,-191.805389,1.21504247189694,2.38286241379166,2.20597878301752,20.253767,794.05127,134.848602,153.898041,1187.077881,-27.369246,"CRUZEXT"
22,16,51,0.494,4123.58,0.678692,-0.063932,0.713122,-0.163544,-0.97271,0.12674,0.01351,4120.44,0.608343,-0.309414,0.494209,-0.538461,-0.91579,0.15257,-0.33595,2.21,2.61,2.82,2.79,3.17,3.01,3.01,3.81,3.15,3.9,4.02,3.94,3.77,3.82,3.72,2095,8.729167,60660.497167,250.155365,986.028381,-191.933624,1.21509623976402,2.3825787669919,2.20631203141826,20.178841,794.001099,134.813004,153.64389,1187.094238,-27.428127,"CRUZEXT"
23,16,51,0.499,4123.6,0.678665,-0.064101,0.713117,-0.163614,-0.9751,0.13027,0.01224,4120.46,0.608274,-0.309419,0.494131,-0.538607,-0.91373,0.15039,-0.33852,2.21,2.61,2.82,2.79,3.17,3.01,3.01,3.81,3.15,3.9,4.01,3.95,3.77,3.82,3.72,2096,8.733333,60660.501333,250.106995,986.037781,-191.953888,1.21508528820892,2.38252967954608,2.20635585401927,20.166451,793.995361,134.811569,153.593689,1187.092163,-27.440346,"CRUZEXT"
24,16,51,0.554,4123.62,0.678527,-0.064243,0.713208,-0.163734,-0.97611,0.13569,0.01266,4120.48,0.608131,-0.309415,0.494155,-0.538749,-0.91284,0.15126,-0.34012,2.21,2.61,2.82,2.79,3.17,3.01,3.01,3.81,3.15,3.9,4.02,3.94,3.77,3.82,3.72,2109,8.7875,60660.5555,249.657288,986.14093,-192.148163,1.21480729445097,2.38195042991153,2.20677121504504,19.994871,793.880676,134.737854,153.070221,1187.088013,-27.539366,"CRUZEXT"
25,16,51,0.56,4123.64,0.678382,-0.064395,0.713293,-0.163903,-0.97321,0.13822,0.00943,4120.5,0.608149,-0.309186,0.494132,-0.53888,-0.91249,0.15351,-0.33932,2.21,2.61,2.82,2.79,3.17,3.01,3.01,3.81,3.15,3.9,4.02,3.94,3.77,3.82,3.72,2111,8.795833,60660.563833,249.601791,986.156982,-192.166946,1.21468198760984,2.38182430236959,2.20681734100221,19.966032,793.865234,134.742157,152.982544,1187.079224,-27.548494,"CRUZEXT"
26,16,51,0.564,4123.66,0.67832,-0.06445,0.713321,-0.164013,-0.97133,0.13804,0.01282,4120.52,0.608008,-0.309006,0.494224,-0.539059,-0.91427,0.15213,-0.34018,2.21,2.61,2.82,2.79,3.17,3.01,3.01,3.81,3.16,3.9,4.02,3.95,3.77,3.82,3.72,2112,8.8,60660.568,249.577728,986.159058,-192.177505,1.21464458599289,2.38178642454959,2.2068313455853,19.951338,793.858032,134.738281,152.944702,1187.08252,-27.549007,"CRUZEXT"
27,16,51,0.609,4123.68,0.678186,-0.064463,0.713422,-0.164128,-0.97205,0.13742,0.01123,4120.54,0.607877,-0.308797,0.494287,-0.539269,-0.91441,0.15107,-0.34141,2.21,2.61,2.82,2.79,3.17,3.01,3.01,3.81,3.15,3.9,4.01,3.94,3.77,3.82,3.72,2122,8.841667,60660.609667,249.3414,986.236755,-192.207443,1.21401414783649,2.38131815141414,2.20688923776144,19.836046,793.75769,134.75592,152.554108,1187.051147,-27.582153,"CRUZEXT"
28,16,51,0.614,4123.7,0.678181,-0.064398,0.713422,-0.164172,-0.97367,0.13897,0.01177,4120.56,0.60791,-0.30848,0.494246,-0.539449,-0.91514,0.1492,-0.34129,2.21,2.61,2.82,2.79,3.17,3.01,3.01,3.81,3.15,3.9,4.02,3.94,3.77,3.82,3.72,2124,8.85,60660.618,249.295578,986.244568,-192.203094,1.21385757417808,2.38121829870282,2.20688633539044,19.812319,793.735474,134.770706,152.467087,1187.041016,-27.577528,"CRUZEXT"
29,16,51,0.632,4123.72,0.67803,-0.064416,0.713541,-0.164273,-0.9744,0.14209,0.01294,4120.58,0.607874,-0.308182,0.494339,-0.539576,-0.9134,0.15041,-0.33817,2.21,2.61,2.82,2.79,3.17,3.01,3.01,3.81,3.15,3.9,4.02,3.95,3.77,3.82,3.72,2128,8.866667,60660.634667,249.209534,986.249695,-192.192627,1.21361209258859,2.38108621431792,2.20685613927024,19.775955,793.694885,134.797089,152.31868,1187.018066,-27.576128,"CRUZEXT"
30,16,51,0.637,4123.74,0.677867,-0.064429,0.713675,-0.164359,-0.97351,0.14235,0.01039,4120.6,0.60792,-0.307943,0.494285,-0.53971,-0.90857,0.1517,-0.33353,2.21,2.61,2.82,2.79,3.17,3.01,3.01,3.81,3.16,3.9,4.02,3.94,3.77,3.82,3.73,2129,8.870833,60660.638833,249.191162,986.25177,-192.192886,1.21355966174846,2.38106583964259,2.20684148837741,19.770771,793.690308,134.797913,152.287704,1187.01416,-27.581366,"CRUZEXT"
31,16,51,0.672,4123.76,0.677809,-0.064346,0.713723,-0.164421,-0.97316,0.14301,0.01338,4120.62,0.607823,-0.307843,0.494282,-0.539879,-0.90944,0.15029,-0.33632,2.21,2.61,2.82,2.79,3.17,3.01,3.01,3.81,3.15,3.9,4.02,3.94,3.77,3.82,3.72,2137,8.904167,60660.672167,249.0215,986.215515,-192.129578,1.21323609025686,2.38098536226948,2.20670366853668,19.713411,793.61084,134.847961,152.029327,1186.97229,-27.540783,"CRUZEXT"
32,16,51,0.677,4123.78,0.677637,-0.064328,0.713869,-0.164505,-0.97262,0.14287,0.01299,4120.64,0.607775,-0.307745,0.494307,-0.539966,-0.91305,0.14641,-0.34319,2.21,2.61,2.82,2.79,3.17,3.01,3.01,3.81,3.15,3.9,4.02,3.94,3.77,3.82,3.73,2139,8.9125,60660.6805,248.991333,986.211304,-192.091995,1.21311431437397,2.3809405118529,2.20666697504022,19.702215,793.588257,134.856766,151.968628,1186.957275,-27.513214,"CRUZEXT"
33,16,51,0.73,4123.8,0.677528,-0.064301,0.713971,-0.164519,-0.97381,0.14176,0.01461,4120.66,0.608044,-0.30758,0.494098,-0.539948,-0.9149,0.14868,-0.34229,2.21,2.61,2.82,2.79,3.17,3.01,3.01,3.81,3.15,3.9,4.02,3.94,3.77,3.82,3.73,2151,8.9625,60660.7305,248.796677,986.152771,-191.857681,1.2125187530914,2.38086277984802,2.20633913784989,19.720833,793.390503,134.944672,151.61087,1186.901489,-27.337582,"CRUZEXT"
34,16,51,0.735,4123.82,0.677331,-0.064305,0.714141,-0.16459,-0.97307,0.14167,0.01501,4120.68,0.608153,-0.307466,0.494073,-0.539913,-0.91422,0.15365,-0.3366,2.21,2.61,2.82,2.79,3.17,3.01,3.01,3.81,3.16,3.9,4.02,3.94,3.77,3.82,3.73,2153,8.970833,60660.738833,248.756378,986.147156,-191.816864,1.21248910380363,2.38084022738575,2.20634233120028,19.708635,793.369446,134.979065,151.56073,1186.895996,-27.292421,"CRUZEXT"
35,16,51,0.751,4123.84,0.677152,-0.06428,0.714305,-0.164625,-0.97508,0.1396,0.01549,4120.7,0.60838,-0.30733,0.493841,-0.539947,-0.91755,0.15512,-0.33601,2.21,2.61,2.82,2.79,3.17,3.01,3.01,3.81,3.15,3.9,4.02,3.95,3.77,3.82,3.73,2156,8.983333,60660.751333,248.715683,986.14679,-191.755585,1.2124721367802,2.38077515687991,2.20639868941476,19.694923,793.32428,135.011276,151.512802,1186.889038,-27.213783,"CRUZEXT"
36,16,51,0.772,4123.86,0.677028,-0.064308,0.714432,-0.164575,-0.97267,0.13824,0.01868,4120.72,0.608384,-0.307378,0.493823,-0.539933,-0.9097,0.15581,-0.337,2.21,2.61,2.83,2.79,3.17,3.01,3.01,3.81,3.15,3.9,4.02,3.94,3.77,3.82,3.72,2161,9.004167,60660.772167,248.677628,986.134399,-191.650528,1.21262020556399,2.38088333811333,2.206387379764,19.625132,793.363281,135.034668,151.515594,1186.892334,-27.115335,"CRUZEXT"
37,16,51,0.777,4123.88,0.676787,-0.064292,0.714667,-0.164553,-0.96762,0.14497,0.02199,4120.74,0.608347,-0.307514,0.493868,-0.539855,-0.90731,0.15588,-0.34143,2.21,2.61,2.82,2.79,3.17,3.01,3.01,3.81,3.15,3.9,4.02,3.95,3.78,3.82,3.72,2163,9.0125,60660.7805,248.685699,986.128113,-191.604309,1.21270277548635,2.38099593659599,2.206326415515,19.574619,793.400146,135.029419,151.543961,1186.909912,-27.080788,"CRUZEXT"
38,16,51,0.829,4123.9,0.676985,-0.064129,0.714513,-0.164469,-0.96779,0.14584,0.00938,4120.76,0.60851,-0.307445,0.493919,-0.539664,-0.90656,0.16073,-0.34778,2.21,2.61,2.82,2.79,3.17,3.01,3.01,3.81,3.15,3.9,4.01,3.94,3.77,3.82,3.73,2175,9.0625,60660.8305,249.003647,986.151917,-191.221893,1.21193310827522,2.38118547241941,2.20559877219996,19.337423,793.485413,134.98201,151.638458,1187.018799,-26.820713,"CRUZEXT"
39,16,51,0.834,4123.92,0.676941,-0.063982,0.714606,-0.164305,-0.97911,0.14155,0.01163,4120.78,0.608533,-0.307601,0.494047,-0.539432,-0.91422,0.15681,-0.35386,2.21,2.61,2.82,2.79,3.17,3.01,3.01,3.81,3.15,3.9,4.01,3.94,3.77,3.82,3.72,2176,9.066667,60660.834667,249.041565,986.158447,-191.176682,1.21177362141198,2.38117440070974,2.20550049361305,19.331163,793.456726,134.969925,151.632385,1187.028564,-26.793062,"CRUZEXT"
40,16,51,0.852,4123.94,0.676962,-0.063747,0.714663,-0.164059,-0.99801,0.12809,0.01025,4120.8,0.608772,-0.30755,0.493977,-0.539255,-0.9187,0.14934,-0.34982,2.21,2.61,2.82,2.79,3.17,3.01,3.01,3.81,3.15,3.9,4.01,3.94,3.77,3.82,3.73,2181,9.0875,60660.8555,249.219452,986.193054,-190.957077,1.21090192289298,2.3809318638806,2.20515295514513,19.262257,793.373535,134.942581,151.583328,1187.018311,-26.649834,"CRUZEXT"
41,16,51,0.857,4123.96,0.677152,-0.063731,0.714575,-0.163668,-0.99367,0.12674,0.00978,4120.82,0.609017,-0.307193,0.494084,-0.539084,-0.91586,0.14193,-0.33498,2.21,2.61,2.82,2.79,3.17,3.01,3.01,3.81,3.15,3.9,4.02,3.94,3.77,3.82,3.72,2182,9.091667,60660.859667,249.237762,986.200745,-190.911621,1.21077895259543,2.38089668136795,2.2051048386352,19.246744,793.362549,134.943024,151.570023,1187.018677,-26.615614,"CRUZEXT"
42,16,51,0.91,4123.98,0.677137,-0.063619,0.714635,-0.163506,-0.96387,0.14033,0.01976,4120.84,0.609187,-0.306923,0.494203,-0.538937,-0.91507,0.15077,-0.31791,2.21,2.61,2.82,2.79,3.17,3.01,3.01,3.81,3.15,3.9,4.01,3.94,3.77,3.82,3.73,2195,9.145833,60660.913833,249.244644,986.144348,-190.574646,1.21091423893949,2.38091025988906,2.20518405983617,19.114397,793.23877,134.910873,151.584427,1187.021606,-26.214531,"CRUZEXT"
43,16,51,0.915,4124,0.67712,-0.063587,0.714704,-0.163292,-0.95056,0.13949,0.01897,4120.86,0.608911,-0.307136,0.494567,-0.538794,-0.91532,0.16152,-0.3122,2.21,2.61,2.82,2.79,3.17,3.01,3.01,3.81,3.15,3.9,4.01,3.94,3.77,3.82,3.72,2196,9.15,60660.918,249.241928,986.154114,-190.553604,1.21097180577853,2.38089061074506,2.20524435921941,19.101421,793.236084,134.919937,151.595123,1187.030762,-26.177446,"CRUZEXT"
44,16,51,0.934,4124.02,0.677044,-0.063446,0.714855,-0.162996,-0.96143,0.13672,0.01835,4120.88,0.608666,-0.307523,0.494688,-0.538738,-0.9175,0.15996,-0.32917,2.21,2.61,2.82,2.79,3.17,3.01,3.01,3.81,3.15,3.9,4.02,3.94,3.77,3.82,3.73,2200,9.166667,60660.934667,249.270157,986.207153,-190.473297,1.21100210364644,2.38067958702918,2.20548600871795,19.065983,793.211609,134.937454,151.625397,1187.05542,-26.033371,"CRUZEXT"
45,16,51,0.938,4124.04,0.676921,-0.06319,0.715067,-0.162677,-0.97886,0.14064,0.01331,4120.9,0.60859,-0.307849,0.494665,-0.538659,-0.92393,0.1495,-0.34385,2.21,2.61,2.82,2.79,3.17,3.01,3.01,3.81,3.15,3.9,4.01,3.94,3.77,3.82,3.73,2201,9.170833,60660.938833,249.281876,986.227356,-190.4552,1.21099376169025,2.3806144692465,2.20554836047955,19.056829,793.213562,134.947662,151.634445,1187.064209,-26.000498,"CRUZEXT"
46,16,51,0.992,4124.06,0.676843,-0.062932,0.715233,-0.162373,-0.98043,0.14043,0.0189,4120.92,0.608524,-0.307893,0.494903,-0.53849,-0.92299,0.14746,-0.34429,2.21,2.61,2.82,2.79,3.17,3.01,3.01,3.81,3.15,3.9,4.01,3.94,3.77,3.82,3.73,2214,9.225,60660.993,249.35553,986.453918,-190.052948,1.21072229109407,2.38027702274558,2.20571387965211,18.951775,793.257141,135.075531,151.643112,1187.214966,-25.570505,"CRUZEXT"
47,16,51,0.997,4124.08,0.676719,-0.062812,0.715409,-0.16216,-0.97355,0.14239,0.01836,4120.94,0.608492,-0.307899,0.495048,-0.53839,-0.9194,0.15058,-0.33941,2.21,2.61,2.82,2.79,3.17,3.01,3.01,3.81,3.15,3.9,4.02,3.94,3.77,3.82,3.73,2215,9.229167,60660.997167,249.349686,986.467834,-190.018539,1.21072889637391,2.38027228686792,2.20572339377543,18.949221,793.253967,135.082642,151.639908,1187.226074,-25.53553,"CRUZEXT"
48,16,51,1.002,4124.1,0.676722,-0.062805,0.71544,-0.162013,-0.97433,0.14355,0.01618,4120.96,0.608636,-0.307925,0.494825,-0.538417,-0.91769,0.15226,-0.33327,2.21,2.61,2.82,2.79,3.17,3.02,3.01,3.81,3.15,3.9,4.02,3.94,3.78,3.82,3.72,2217,9.2375,60661.0055,249.336563,986.490601,-189.957245,1.21075103072268,2.38024580578714,2.20576637211886,18.927605,793.259399,135.111206,151.631104,1187.246704,-25.46224,"CRUZEXT"
49,16,51,1.053,4124.12,0.676664,-0.062915,0.715496,-0.161965,-0.9789,0.14366,0.01631,4120.98,0.608579,-0.30799,0.494793,-0.538473,-0.91696,0.14968,-0.32762,2.21,2.61,2.82,2.79,3.17,3.01,3.01,3.81,3.15,3.9,4.02,3.94,3.77,3.82,3.72,2229,9.2875,60661.0555,249.152649,986.664368,-189.709778,1.21114949540177,2.37957113719999,2.20674667942681,18.876585,793.175476,135.277374,151.542343,1187.30835,-24.982018,"CRUZEXT"
50,16,51,1.058,4124.14,0.676646,-0.062922,0.715526,-0.161903,-0.98209,0.14,0.018,4121,0.608385,-0.30817,0.494854,-0.538533,-0.91504,0.1539,-0.31677,2.2,2.61,2.82,2.79,3.17,3.02,3.01,3.81,3.15,3.9,4.02,3.94,3.78,3.82,3.73,2230,9.291667,60661.059667,249.135849,986.682495,-189.695267,1.21121422577845,2.37950194395573,2.20686362295042,18.876009,793.163452,135.290115,151.54187,1187.314209,-24.940609,"CRUZEXT"
51,16,51,1.063,4124.16,0.676721,-0.062896,0.7155,-0.161718,-0.97435,0.13902,0.01807,4121.02,0.608128,-0.3083,0.495021,-0.538596,-0.91647,0.15588,-0.32443,2.21,2.61,2.82,2.79,3.17,3.02,3.01,3.81,3.15,3.9,4.01,3.94,3.78,3.82,3.73,2231,9.295833,60661.063833,249.113663,986.699219,-189.680878,1.21126374469967,2.37942295156973,2.20698031048624,18.874908,793.156677,135.312668,151.527557,1187.32605,-24.891773,"CRUZEXT"
52,16,51,1.107,4124.18,0.676618,-0.062943,0.715614,-0.161626,-0.96622,0.14019,0.01624,4121.04,0.607839,-0.30836,0.495274,-0.538655,-0.91879,0.15271,-0.33058,2.21,2.61,2.82,2.79,3.17,3.02,3.01,3.81,3.15,3.9,4.01,3.94,3.77,3.81,3.73,2242,9.341667,60661.109667,248.947861,986.961487,-189.540512,1.21149935289874,2.3784884916426,2.20811889677942,18.867695,793.101807,135.497696,151.425049,1187.404907,-24.501083,"CRUZEXT"
53,16,51,1.112,4124.2,0.676655,-0.063,0.715599,-0.161513,-0.96549,0.13862,0.01873,4121.06,0.607631,-0.308381,0.495378,-0.538782,-0.92327,0.15663,-0.33784,2.2,2.61,2.82,2.79,3.17,3.02,3.01,3.81,3.15,3.9,4.02,3.94,3.78,3.82,3.73,2243,9.345833,60661.113833,248.938339,986.985779,-189.524826,1.21150950903109,2.37841400717037,2.20820368233592,18.868523,793.097168,135.500381,151.418106,1187.415039,-24.4664,"CRUZEXT"
54,16,51,1.132,4124.22,0.676587,-0.063093,0.715665,-0.161475,-0.97246,0.1392,0.01826,4121.08,0.607427,-0.308382,0.495498,-0.538902,-0.91715,0.15784,-0.33418,2.2,2.61,2.82,2.79,3.17,3.01,3.01,3.82,3.15,3.9,4.02,3.94,3.78,3.82,3.73,2248,9.366667,60661.134667,248.872086,987.085938,-189.485107,1.21164576986812,2.37808558213932,2.20864041102218,18.833937,793.087219,135.552856,151.380737,1187.465576,-24.318346,"CRUZEXT"
55,16,51,1.137,4124.24,0.676511,-0.063172,0.715732,-0.161459,-0.97616,0.14117,0.0189,4121.1,0.607221,-0.30843,0.495553,-0.539055,-0.9133,0.15717,-0.32598,2.2,2.6,2.82,2.79,3.17,3.02,3.01,3.81,3.15,3.9,4.02,3.94,3.77,3.82,3.73,2249,9.370833,60661.138833,248.858002,987.102173,-189.48468,1.21169103598569,2.37803953287067,2.20871962727726,18.821417,793.088928,135.563217,151.377258,1187.475342,-24.298319,"CRUZEXT"
56,16,51,1.183,4124.26,0.676533,-0.0633,0.715716,-0.161391,-0.97674,0.13721,0.0185,4121.12,0.606947,-0.308603,0.495599,-0.539223,-0.90939,0.15873,-0.32296,2.2,2.6,2.82,2.79,3.17,3.02,3.01,3.81,3.15,3.9,4.02,3.94,3.78,3.82,3.73,2260,9.416667,60661.184667,248.790955,987.261353,-189.519714,1.21183692947977,2.37711748898294,2.2097823809827,18.735243,793.052734,135.618896,151.321274,1187.512695,-24.051098,"CRUZEXT"
57,16,51,1.188,4124.28,0.6764,-0.063388,0.715836,-0.161382,-0.97689,0.13211,0.01796,4121.14,0.606643,-0.308737,0.495727,-0.539371,-0.90805,0.15702,-0.32474,2.2,2.6,2.82,2.79,3.17,3.02,3.01,3.81,3.15,3.9,4.01,3.94,3.77,3.82,3.73,2261,9.420833,60661.188833,248.781158,987.268433,-189.5289,1.21189647460133,2.37708013888958,2.20986226424649,18.730349,793.041382,135.618774,151.326187,1187.51416,-24.041206,"CRUZEXT"
58,16,51,1.21,4124.3,0.676495,-0.063637,0.715755,-0.161244,-0.97709,0.12946,0.01568,4121.16,0.606373,-0.308822,0.495878,-0.539486,-0.90982,0.1556,-0.32293,2.2,2.6,2.82,2.79,3.17,3.02,3.01,3.81,3.15,3.9,4.02,3.94,3.77,3.82,3.73,2267,9.445833,60661.213833,248.759125,987.301819,-189.600204,1.21190791831622,2.37662308458767,2.21034699919273,18.705446,793.006165,135.620651,151.280991,1187.513428,-23.960167,"CRUZEXT"
59,16,51,1.232,4124.32,0.676392,-0.063687,0.71586,-0.16119,-0.97485,0.13175,0.01869,4121.18,0.606038,-0.308952,0.496041,-0.539639,-0.9119,0.15677,-0.32781,2.2,2.6,2.82,2.79,3.17,3.02,3.01,3.81,3.15,3.9,4.02,3.94,3.78,3.82,3.73,2272,9.466667,60661.234667,248.700394,987.314758,-189.654678,1.21200916337854,2.37636315501718,2.21068765356232,18.679512,792.980042,135.609131,151.232742,1187.508911,-23.91188,"CRUZEXT"
60,16,51,1.236,4124.34,0.676262,-0.063675,0.716001,-0.161116,-0.971,0.13506,0.01899,4121.2,0.605747,-0.309159,0.496043,-0.539845,-0.92167,0.15142,-0.32975,2.2,2.6,2.82,2.79,3.17,3.02,3.01,3.81,3.15,3.9,4.02,3.94,3.78,3.82,3.73,2273,9.470833,60661.238833,248.692108,987.328613,-189.668579,1.2120218279755,2.37630265245911,2.21075945204742,18.67613,792.97113,135.603928,151.227997,1187.51062,-23.910219,"CRUZEXT"
61,16,51,1.289,4124.36,0.676325,-0.06362,0.715979,-0.160971,-0.97182,0.13433,0.02168,4121.22,0.605538,-0.309238,0.496053,-0.540024,-0.9199,0.15386,-0.32819,2.2,2.6,2.82,2.79,3.17,3.02,3.01,3.81,3.15,3.9,4.02,3.94,3.78,3.82,3.73,2286,9.525,60661.293,248.527344,987.421204,-189.814102,1.21225859696668,2.37570260573395,2.2115475992903,18.620617,792.950623,135.560928,151.092026,1187.555054,-23.824528,"CRUZEXT"
62,16,51,1.294,4124.38,0.676208,-0.063574,0.716101,-0.160936,-0.97389,0.13431,0.02239,4121.24,0.605268,-0.309429,0.496042,-0.540228,-0.92072,0.15813,-0.33228,2.2,2.61,2.82,2.79,3.17,3.02,3.01,3.81,3.15,3.9,4.01,3.94,3.77,3.82,3.73,2287,9.529167,60661.297167,248.516281,987.439697,-189.824966,1.21226526328291,2.37566797448268,2.21158827497239,18.622301,792.94696,135.559845,151.084473,1187.563232,-23.829365,"CRUZEXT"
63,16,51,1.312,4124.4,0.676234,-0.063687,0.716092,-0.160823,-0.9744,0.13382,0.01983,4121.26,0.605029,-0.309577,0.495998,-0.540452,-0.92641,0.15585,-0.33815,2.2,2.6,2.82,2.79,3.17,3.02,3.01,3.81,3.15,3.9,4.01,3.94,3.78,3.82,3.73,2291,9.545833,60661.313833,248.480103,987.534851,-189.857162,1.21216313621511,2.37532525859556,2.21187551854527,18.595306,792.944519,135.54631,151.024597,1187.586548,-23.802498,"CRUZEXT"
64,16,51,1.317,4124.42,0.676131,-0.063588,0.71621,-0.16077,-0.97576,0.13529,0.02126,4121.28,0.604806,-0.309664,0.495968,-0.540679,-0.92732,0.15187,-0.33683,2.21,2.61,2.82,2.79,3.17,3.02,3.01,3.81,3.15,3.9,4.01,3.94,3.78,3.82,3.73,2292,9.55,60661.318,248.468857,987.561707,-189.867035,1.21211466481603,2.37523812176567,2.21193311003194,18.587601,792.943726,135.542221,151.000366,1187.597412,-23.798903,"CRUZEXT"
65,16,51,1.368,4124.44,0.676037,-0.063492,0.716319,-0.160717,-0.97749,0.13702,0.01946,4121.3,0.604626,-0.309662,0.495958,-0.540891,-0.91896,0.15513,-0.32439,2.21,2.61,2.82,2.79,3.17,3.02,3.01,3.82,3.15,3.9,4.02,3.94,3.78,3.82,3.73,2305,9.604167,60661.372167,248.23613,987.796387,-190.038879,1.21199768010403,2.37429658177273,2.21283409582566,18.546785,792.921143,135.569672,150.732315,1187.660767,-23.761955,"CRUZEXT"
66,16,51,1.373,4124.46,0.676112,-0.063439,0.716269,-0.160647,-0.97648,0.13623,0.01848,4121.32,0.604421,-0.309581,0.496064,-0.541068,-0.91363,0.15916,-0.31803,2.21,2.61,2.82,2.79,3.17,3.02,3.01,3.81,3.15,3.9,4.02,3.94,3.78,3.82,3.73,2306,9.608333,60661.376333,248.212982,987.814453,-190.057739,1.21198489292439,2.3742229431696,2.21290205054799,18.544691,792.91803,135.576569,150.704575,1187.667236,-23.763542,"CRUZEXT"
67,16,51,1.391,4124.48,0.676011,-0.063439,0.716355,-0.160686,-0.97503,0.13602,0.01685,4121.34,0.604112,-0.309521,0.496245,-0.541283,-0.91874,0.15456,-0.32755,2.21,2.61,2.82,2.79,3.17,3.01,3.01,3.81,3.15,3.9,4.02,3.94,3.78,3.82,3.73,2310,9.625,60661.393,248.117828,987.875061,-190.119522,1.21194949785364,2.37394437609503,2.21316798911894,18.539486,792.9021,135.592224,150.597092,1187.680542,-23.76086,"CRUZEXT"
68,16,51,1.414,4124.5,0.676136,-0.063286,0.716253,-0.160673,-0.97311,0.13824,0.02152,4121.36,0.603923,-0.309414,0.496281,-0.541521,-0.91616,0.15384,-0.32969,2.21,2.61,2.82,2.79,3.17,3.02,3.01,3.82,3.15,3.9,4.02,3.94,3.78,3.82,3.73,2316,9.65,60661.418,247.977539,987.963684,-190.23111,1.21182870676484,2.37350953646166,2.21353811367469,18.547701,792.881958,135.620117,150.411621,1187.713501,-23.766661,"CRUZEXT"
69,16,51,1.419,4124.52,0.67606,-0.063271,0.716312,-0.160742,-0.97264,0.14005,0.02155,4121.38,0.60363,-0.309328,0.496419,-0.54177,-0.91188,0.16127,-0.32741,2.2,2.61,2.82,2.79,3.17,3.02,3.01,3.82,3.15,3.9,4.02,3.94,3.78,3.82,3.73,2317,9.654167,60661.422167,247.952957,987.964722,-190.255463,1.21183235586002,2.3734957178584,2.213555007346,18.54269,792.882385,135.617142,150.379501,1187.729248,-23.772778,"CRUZEXT"
70,16,51,1.464,4124.54,0.675963,-0.063293,0.716373,-0.160866,-0.97285,0.13947,0.02053,4121.4,0.603137,-0.309338,0.496663,-0.54209,-0.90545,0.17196,-0.32439,2.21,2.61,2.82,2.79,3.17,3.02,3.01,3.81,3.15,3.9,4.02,3.94,3.77,3.82,3.73,2328,9.7,60661.468,247.544189,988.004456,-190.688889,1.2127512596892,2.37307887383692,2.21461809935385,18.54221,792.856445,135.615814,150.116394,1187.880005,-23.810083,"CRUZEXT"
71,16,51,1.469,4124.56,0.675994,-0.063376,0.716314,-0.160967,-0.97243,0.13691,0.02086,4121.42,0.601912,-0.310187,0.496975,-0.54268,-0.88273,0.18532,-0.3121,2.21,2.61,2.82,2.79,3.17,3.02,3.01,3.82,3.15,3.9,4.02,3.94,3.78,3.82,3.73,2329,9.704167,60661.472167,247.511322,988.010376,-190.747971,1.21286924540913,2.37296233454194,2.21482004285952,18.537722,792.855591,135.616898,150.100983,1187.890625,-23.801529,"CRUZEXT"
72,16,51,1.492,4124.58,0.675866,-0.063455,0.716397,-0.161102,-0.97369,0.13545,0.02131,4121.44,0.599617,-0.31178,0.497559,-0.543771,-0.90449,0.19432,-0.29578,2.2,2.61,2.82,2.79,3.17,3.02,3.01,3.82,3.15,3.9,4.01,3.94,3.77,3.82,3.73,2334,9.725,60661.493,247.398056,988.117981,-191.171066,1.21324560031402,2.37186729574268,2.21621628552025,18.501299,792.84137,135.627029,150.012955,1187.935791,-23.789232,"CRUZEXT"
73,16,51,1.497,4124.6,0.675808,-0.063569,0.71642,-0.1612,-0.97445,0.13518,0.02082,4121.46,0.597418,-0.31196,0.498504,-0.545222,-0.92575,0.20916,-0.29895,2.21,2.61,2.82,2.79,3.17,3.02,3.01,3.82,3.15,3.9,4.01,3.94,3.78,3.82,3.73,2335,9.729167,60661.497167,247.386276,988.162292,-191.274094,1.21327782485005,2.37152434210406,2.21659490399387,18.495733,792.828369,135.637985,149.996414,1187.940674,-23.785477,"CRUZEXT"
74,16,51,1.554,4124.62,0.675658,-0.06366,0.716508,-0.161402,-0.9752,0.13379,0.02161,4121.48,0.595116,-0.311056,0.499936,-0.546942,-0.93225,0.20489,-0.3128,2.21,2.61,2.82,2.79,3.17,3.02,3.01,3.82,3.15,3.9,4.02,3.94,3.78,3.82,3.73,2349,9.7875,60661.5555,247.615875,989.717163,-193.048676,1.21100625101624,2.36218015621379,2.22474110190534,18.357544,792.646057,135.778809,149.462509,1188.023071,-23.458702,"CRUZEXT"
75,16,51,1.559,4124.64,0.675467,-0.063784,0.716623,-0.161643,-0.97817,0.13407,0.01657,4121.5,0.592711,-0.309253,0.501857,-0.548813,-0.94467,0.20949,-0.33299,2.21,2.61,2.82,2.79,3.17,3.02,3.01,3.82,3.15,3.9,4.02,3.94,3.77,3.82,3.73,2350,9.791667,60661.559667,247.657486,989.918579,-193.204285,1.21066810169077,2.36116806309035,2.22555808388423,18.345272,792.625183,135.789291,149.410538,1188.036865,-23.424345,"CRUZEXT"
76,16,51,1.564,4124.66,0.675359,-0.063903,0.716671,-0.161832,-0.97199,0.13839,0.01561,4121.52,0.590048,-0.30673,0.504089,-0.551048,-0.95389,0.22149,-0.32931,2.21,2.61,2.82,2.79,3.17,3.01,3.01,3.82,3.15,3.9,4.02,3.94,3.78,3.82,3.73,2352,9.8,60661.568,247.729599,990.312439,-193.503387,1.21003774725943,2.35916167138695,2.22720349022882,18.319813,792.60675,135.802338,149.29895,1188.075439,-23.326525,"CRUZEXT"
77,16,51,1.609,4124.68,0.675183,-0.064017,0.716789,-0.161999,-0.96474,0.14533,0.01655,4121.54,0.586921,-0.303776,0.506482,-0.553823,-0.93982,0.23291,-0.32314,2.21,2.61,2.82,2.79,3.17,3.02,3.01,3.82,3.15,3.9,4.02,3.94,3.78,3.82,3.73,2362,9.841667,60661.609667,248.152084,992.604736,-195.232346,1.2066170653914,2.34786983300873,2.23651321169082,18.21788,792.48407,135.864883,148.739029,1188.313477,-22.849371,"CRUZEXT"
78,16,51,1.615,4124.7,0.67522,-0.064085,0.716754,-0.16197,-0.96786,0.13996,0.01796,4121.56,0.583226,-0.300682,0.509056,-0.557045,-0.9345,0.24817,-0.30915,2.21,2.61,2.82,2.79,3.17,3.01,3.01,3.81,3.15,3.9,4.02,3.94,3.78,3.82,3.73,2364,9.85,60661.618,248.225067,993.133301,-195.618332,1.20595957293325,2.34533124356473,2.23867385282152,18.20262,792.461609,135.875961,148.625458,1188.365845,-22.735266,"CRUZEXT"
79,16,51,1.633,4124.72,0.675103,-0.064014,0.71689,-0.161887,-0.97239,0.13384,0.02077,4121.58,0.579104,-0.297394,0.511892,-0.560502,-0.94467,0.25689,-0.30273,2.21,2.61,2.83,2.79,3.17,3.02,3.01,3.82,3.15,3.9,4.01,3.94,3.78,3.82,3.73,2368,9.866667,60661.634667,248.360596,994.291199,-196.454651,1.20453378979209,2.33977556419958,2.24340027804951,18.170443,792.404785,135.897064,148.348053,1188.49231,-22.465908,"CRUZEXT"
80,16,51,1.638,4124.74,0.67498,-0.063942,0.717039,-0.161766,-0.97546,0.13524,0.02429,4121.6,0.574795,-0.293655,0.515144,-0.563918,-0.92547,0.25523,-0.28666,2.21,2.61,2.83,2.79,3.17,3.02,3.01,3.82,3.15,3.9,4.02,3.94,3.77,3.82,3.73,2369,9.870833,60661.638833,248.404144,994.572876,-196.695297,1.20422035919468,2.33834482733577,2.24465185754985,18.166866,792.395508,135.906448,148.290268,1188.524658,-22.399147,"CRUZEXT"
81,16,51,1.69,4124.76,0.674985,-0.063857,0.717086,-0.161571,-0.97771,0.13707,0.02311,4121.62,0.570342,-0.289572,0.518617,-0.567358,-0.90177,0.26383,-0.27173,2.21,2.61,2.82,2.79,3.17,3.02,3.01,3.82,3.15,3.9,4.02,3.94,3.78,3.82,3.73,2382,9.925,60661.693,248.706818,998.466492,-200.330887,1.20115796474875,2.31845539860163,2.26283424100756,18.113565,792.180664,136.04039,147.521027,1188.897705,-21.611513,"CRUZEXT"
82,16,51,1.696,4124.78,0.674843,-0.063787,0.717259,-0.161424,-0.97536,0.13729,0.0244,4121.64,0.565383,-0.285686,0.5222,-0.570993,-0.88623,0.29494,-0.25595,2.21,2.61,2.83,2.79,3.17,3.02,3.01,3.82,3.15,3.9,4.02,3.94,3.78,3.82,3.73,2383,9.929167,60661.697167,248.720535,998.772705,-200.657578,1.20103632845558,2.3168043231736,2.26442563688291,18.108408,792.161377,136.055527,147.481369,1188.905151,-21.557026,"CRUZEXT"
83,16,51,1.712,4124.8,0.674773,-0.063733,0.717373,-0.161233,-0.97259,0.13749,0.0259,4121.66,0.559593,-0.282063,0.526059,-0.574942,-0.87256,0.31902,-0.24554,2.21,2.61,2.83,2.79,3.17,3.02,3.01,3.82,3.15,3.9,4.02,3.94,3.78,3.82,3.73,2387,9.945833,60661.713833,248.793503,1000.006775,-202.090134,1.20057070154629,2.30986308742715,2.27113199653666,18.09322,792.08728,136.11438,147.310928,1188.93335,-21.33209,"CRUZEXT"
84,16,51,1.717,4124.82,0.67461,-0.063693,0.717565,-0.161074,-0.97219,0.13827,0.02475,4121.68,0.553154,-0.278363,0.530475,-0.578905,-0.88534,0.33032,-0.24656,2.21,2.61,2.83,2.79,3.17,3.02,3.01,3.81,3.15,3.9,4.02,3.94,3.78,3.82,3.73,2388,9.95,60661.718,248.788605,1000.359985,-202.44989,1.20048969990075,2.30801372960882,2.27294405704225,18.088146,792.066101,136.130966,147.267456,1188.935181,-21.27249,"CRUZEXT"
85,16,51,1.774,4124.84,0.674392,-0.063679,0.717801,-0.160939,-0.97337,0.13782,0.02454,4121.7,0.546117,-0.27453,0.535481,-0.582795,-0.90318,0.34094,-0.25338,2.21,2.61,2.83,2.79,3.17,3.02,3.01,3.82,3.15,3.9,4.02,3.94,3.78,3.82,3.73,2402,10.008333,60661.776333,248.343353,1005.963684,-208.139725,1.20102395607774,2.27943353611777,2.30193556805692,18.01226,791.817383,136.361862,146.719986,1188.962769,-20.38332,"CRUZEXT"
86,16,51,1.779,4124.86,0.674279,-0.063645,0.71794,-0.160807,-0.97163,0.13972,0.02244,4121.72,0.538577,-0.270672,0.540942,-0.586561,-0.91677,0.36002,-0.2605,2.21,2.61,2.83,2.79,3.17,3.02,3.01,3.81,3.15,3.9,4.02,3.94,3.78,3.82,3.73,2403,10.0125,60661.7805,248.285477,1006.415588,-208.555313,1.20115043683874,2.27729037450484,2.30415054940113,18.009344,791.803711,136.376251,146.679123,1188.985718,-20.305803,"CRUZEXT"
87,16,51,1.784,4124.88,0.674027,-0.063767,0.718165,-0.160811,-0.97241,0.13623,0.02255,4121.74,0.530384,-0.26712,0.546446,-0.590539,-0.92611,0.37673,-0.26644,2.21,2.61,2.83,2.79,3.17,3.02,3.01,3.82,3.15,3.9,4.02,3.94,3.78,3.82,3.73,2404,10.016667,60661.784667,248.231949,1006.865479,-208.964081,1.20126023069817,2.27514880362967,2.30635015762947,18.007582,791.781921,136.389618,146.637238,1189.007813,-20.223581,"CRUZEXT"
88,16,51,1.829,4124.9,0.673928,-0.063875,0.718257,-0.160775,-0.97013,0.13686,0.02368,4121.76,0.52163,-0.263824,0.551864,-0.594766,-0.92674,0.39525,-0.27431,2.21,2.61,2.83,2.79,3.17,3.02,3.01,3.82,3.15,3.9,4.02,3.94,3.78,3.82,3.73,2415,10.0625,60661.8305,247.773727,1012.64917,-213.445557,1.20132353100921,2.24901604431613,2.33213430856278,17.995258,791.623901,136.579819,146.102982,1189.289429,-19.213869,"CRUZEXT"
89,16,51,1.834,4124.92,0.673719,-0.063986,0.71846,-0.160702,-0.97379,0.13698,0.02576,4121.78,0.512443,-0.260406,0.55744,-0.599042,-0.92053,0.41281,-0.27842,2.21,2.61,2.83,2.79,3.17,3.02,3.01,3.82,3.15,3.9,4.02,3.94,3.78,3.82,3.73,2416,10.066667,60661.834667,247.756226,1013.239746,-213.834167,1.20119929266606,2.24646549847544,2.33454391873346,17.990133,791.618896,136.601837,146.054108,1189.318115,-19.114321,"CRUZEXT"
90,16,51,1.852,4124.94,0.673542,-0.063995,0.71867,-0.160498,-0.97736,0.13578,0.02457,4121.8,0.503045,-0.256658,0.563116,-0.603301,-0.91661,0.42573,-0.27701,2.21,2.61,2.83,2.79,3.17,3.02,3.01,3.82,3.15,3.9,4.02,3.94,3.78,3.82,3.73,2421,10.0875,60661.8555,247.584976,1016.309753,-215.749588,1.20074227609149,2.23359474670546,2.34676668788342,17.989777,791.554932,136.691025,145.80072,1189.481812,-18.63224,"CRUZEXT"
91,16,51,1.858,4124.96,0.67343,-0.06399,0.718845,-0.160187,-0.97902,0.1389,0.02804,4121.82,0.493344,-0.252691,0.568606,-0.607821,-0.90458,0.44121,-0.26343,2.21,2.61,2.83,2.79,3.17,3.02,3.01,3.82,3.15,3.9,4.02,3.94,3.78,3.82,3.73,2422,10.091667,60661.859667,247.458893,1016.950256,-216.138824,1.20096304636594,2.23101992874479,2.34941206486198,17.991829,791.553528,136.711609,145.757095,1189.508911,-18.53845,"CRUZEXT"
92,16,51,1.891,4124.98,0.673198,-0.064043,0.719122,-0.159896,-0.97529,0.13763,0.03019,4121.84,0.483509,-0.2487,0.573839,-0.612434,-0.89502,0.45939,-0.24867,2.21,2.61,2.83,2.79,3.17,3.02,3.01,3.82,3.15,3.9,4.02,3.94,3.78,3.82,3.73,2430,10.125,60661.893,245.107666,1018.904358,-222.065582,1.21224213477441,2.21514705349061,2.37223604245363,17.987665,791.459839,136.863403,145.277313,1189.786377,-17.70612,"CRUZEXT"
93,16,51,1.912,4125,0.673053,-0.064143,0.719311,-0.159617,-0.97513,0.13414,0.03109,4121.86,0.473766,-0.244323,0.579266,-0.616688,-0.89247,0.49792,-0.2275,2.21,2.61,2.83,2.79,3.17,3.02,3.01,3.82,3.15,3.9,4.02,3.94,3.78,3.82,3.73,2435,10.145833,60661.913833,245.107666,1018.904358,-222.065582,1.21197127871671,2.21451485942046,2.37266530007452,17.996717,791.400879,136.967285,145.018158,1189.962158,-17.238491,"CRUZEXT"
94,16,51,1.917,4125.02,0.672854,-0.064183,0.719555,-0.159338,-0.97464,0.13405,0.02944,4121.88,0.463973,-0.240169,0.584109,-0.621181,-0.84858,0.49881,-0.22332,2.21,2.61,2.83,2.79,3.17,3.02,3.01,3.82,3.15,3.9,4.02,3.94,3.78,3.82,3.73,2436,10.15,60661.918,245.107666,1018.904358,-222.065582,1.21191491869942,2.21438950805597,2.37274862802554,18.000811,791.388733,136.989288,144.972244,1189.986328,-17.1588,"CRUZEXT"
95,16,51,1.972,4125.04,0.672662,-0.064306,0.719765,-0.15915,-0.97384,0.13417,0.02985,4121.9,0.453909,-0.235545,0.588947,-0.625801,-0.8442,0.50101,-0.22658,2.21,2.62,2.83,2.79,3.17,3.02,3.01,3.82,3.15,3.9,4.02,3.94,3.78,3.82,3.73,2449,10.204167,60661.972167,245.107666,1018.904358,-222.065582,1.21125701836616,2.21294901525434,2.37369851612887,18.073948,791.336914,137.127502,144.314835,1190.477783,-15.985485,"CRUZEXT"
96,16,51,1.977,4125.06,0.672584,-0.064412,0.71988,-0.158916,-0.97273,0.1347,0.02851,4121.92,0.44445,-0.231,0.593479,-0.629988,-0.87092,0.51421,-0.22212,2.21,2.62,2.83,2.79,3.17,3.02,3.01,3.82,3.15,3.9,4.02,3.94,3.78,3.82,3.73,2451,10.2125,60661.9805,245.107666,1018.904358,-222.065582,1.21117793514841,2.21276909399196,2.37381907311347,18.092197,791.337585,137.133163,144.216278,1190.568115,-15.803361,"CRUZEXT"
97,16,51,1.994,4125.08,0.672396,-0.064542,0.720079,-0.15876,-0.97599,0.13348,0.03421,4121.94,0.435435,-0.226695,0.597596,-0.633944,-0.82464,0.53271,-0.21266,2.21,2.62,2.83,2.79,3.17,3.02,3.01,3.82,3.15,3.9,4.02,3.94,3.78,3.82,3.73,2455,10.229167,60661.997167,245.107666,1018.904358,-222.065582,1.21115437567655,2.2126958480549,2.37387383715247,18.11643,791.343628,137.143173,144.070694,1190.788208,-15.507753,"CRUZEXT"
98,16,51,1.999,4125.1,0.672203,-0.064814,0.720261,-0.158638,-0.97808,0.12354,0.03203,4121.96,0.426311,-0.222258,0.601407,-0.638098,-0.78064,0.54506,-0.19952,2.21,2.62,2.83,2.8,3.17,3.02,3.01,3.82,3.15,3.9,4.02,3.94,3.78,3.82,3.73,2456,10.233333,60662.001333,245.107666,1018.904358,-222.065582,1.21114875309172,2.21271450422187,2.37385222602433,18.120316,791.34613,137.144714,144.03389,1190.852539,-15.439912,"CRUZEXT"
99,16,51,2.045,4125.12,0.672076,-0.065124,0.720413,-0.158359,-0.97334,0.13808,0.03605,4121.98,0.416487,-0.217696,0.605173,-0.642583,-0.75038,0.56173,-0.20809,2.21,2.62,2.83,2.8,3.17,3.02,3.01,3.82,3.15,3.9,4.02,3.94,3.78,3.82,3.73,2467,10.279167,60662.047167,245.107666,1018.904358,-222.065582,1.21177390391678,2.21283471173406,2.37414870723339,18.192211,791.350525,137.148956,143.796173,1191.571777,-14.549618,"CRUZEXT"
100,16,51,2.05,4125.14,0.671969,-0.065144,0.72056,-0.158136,-0.98361,0.12596,0.03395,4122,0.40761,-0.214273,0.60868,-0.646103,-0.8151,0.57403,-0.1981,2.21,2.62,2.83,2.8,3.17,3.02,3.01,3.82,3.15,3.9,4.02,3.94,3.78,3.82,3.73,2468,10.283333,60662.051333,245.107666,1018.904358,-222.065582,1.21183562490901,2.21280739193702,2.37421555899883,18.197758,791.35675,137.146774,143.777695,1191.625366,-14.464241,"CRUZEXT"
101,16,51,2.071,4125.16,0.67194,-0.065454,0.720581,-0.158037,-0.97716,0.12467,0.03317,4122.02,0.398919,-0.211139,0.611993,-0.649422,-0.75171,0.58233,-0.19226,2.21,2.62,2.83,2.8,3.17,3.02,3.01,3.82,3.15,3.9,4.02,3.94,3.78,3.82,3.73,2473,10.304167,60662.072167,245.107666,1018.904358,-222.065582,1.21232122883744,2.21260300093428,2.37473119825754,18.220514,791.372681,137.138031,143.722351,1191.896362,-13.978238,"CRUZEXT"
102,16,51,2.076,4125.18,0.671731,-0.065699,0.720756,-0.158024,-0.97506,0.12812,0.03198,4122.04,0.390265,-0.207732,0.614977,-0.65295,-0.73054,0.58514,-0.17623,2.21,2.62,2.83,2.8,3.17,3.02,3,3.82,3.15,3.9,4.02,3.94,3.78,3.82,3.73,2474,10.308333,60662.076333,245.107666,1018.904358,-222.065582,1.21241081635071,2.21256879945183,2.37482292294436,18.220209,791.379395,137.138931,143.715347,1191.941772,-13.895693,"CRUZEXT"
103,16,51,2.13,4125.2,0.671629,-0.065955,0.720852,-0.157912,-0.97606,0.13117,0.02975,4122.06,0.381757,-0.204618,0.617693,-0.656391,-0.74566,0.61546,-0.16075,2.21,2.62,2.83,2.8,3.17,3.02,3.01,3.82,3.15,3.9,4.02,3.94,3.78,3.82,3.73,2487,10.3625,60662.1305,245.107666,1018.904358,-222.065582,1.2133444482017,2.21224631484203,2.3757455324787,18.215748,791.438721,137.237045,143.61145,1192.477051,-12.975977,"CRUZEXT"
104,16,51,2.134,4125.22,0.671383,-0.066123,0.721091,-0.157798,-0.97709,0.12922,0.0339,4122.08,0.372757,-0.200829,0.620613,-0.659969,-0.72098,0.67463,-0.16239,2.21,2.62,2.83,2.8,3.17,3.02,3.01,3.82,3.15,3.9,4.02,3.94,3.78,3.82,3.73,2488,10.366667,60662.134667,245.107666,1018.904358,-222.065582,1.21339283598595,2.21220753295429,2.37581448929005,18.22283,791.383118,137.224609,143.599701,1192.51062,-12.91081,"CRUZEXT"
105,16,51,2.152,4125.24,0.671148,-0.066371,0.721307,-0.157707,-0.97555,0.128,0.0319,4122.1,0.364608,-0.197751,0.623149,-0.663055,-0.73303,0.66616,-0.17106,2.21,2.62,2.83,2.8,3.17,3.01,3.01,3.82,3.15,3.9,4.02,3.94,3.78,3.82,3.73,2493,10.3875,60662.1555,245.107666,1018.904358,-222.065582,1.21366295662541,2.21195268966136,2.3762361529321,18.215977,791.443298,137.279175,143.569717,1192.628296,-12.612713,"CRUZEXT"
106,16,51,2.157,4125.26,0.671091,-0.066583,0.721373,-0.157561,-0.97194,0.12932,0.02815,4122.12,0.356652,-0.194479,0.625318,-0.666299,-0.69233,0.6514,-0.16966,2.21,2.62,2.83,2.8,3.17,3.01,3,3.82,3.15,3.9,4.02,3.94,3.78,3.82,3.73,2494,10.391667,60662.159667,245.107666,1018.904358,-222.065582,1.21370491515795,2.21190421013048,2.37631017229493,18.215544,791.445374,137.297852,143.558701,1192.655396,-12.551534,"CRUZEXT"
107,16,51,2.21,4125.28,0.670912,-0.066792,0.721549,-0.157428,-0.97049,0.13334,0.03285,4122.14,0.348202,-0.190828,0.62709,-0.670148,-0.70658,0.67088,-0.15948,2.21,2.62,2.83,2.8,3.17,3.02,3.01,3.82,3.15,3.9,4.02,3.94,3.78,3.82,3.73,2507,10.445833,60662.213833,245.107666,1018.904358,-222.065582,1.21447656172514,2.21119331285733,2.37749752613987,18.242105,791.461426,137.355759,143.511551,1192.93042,-11.780345,"CRUZEXT"
108,16,51,2.215,4125.3,0.670888,-0.067062,0.721579,-0.157277,-0.97384,0.13014,0.03591,4122.16,0.341157,-0.187763,0.628673,-0.673147,-0.69289,0.68666,-0.16678,2.21,2.62,2.83,2.8,3.17,3.02,3.01,3.82,3.15,3.9,4.02,3.94,3.78,3.82,3.73,2508,10.45,60662.218,245.107666,1018.904358,-222.065582,1.21452698845133,2.21111660971649,2.37760409065697,18.249174,791.461609,137.360733,143.506805,1192.944214,-11.72055,"CRUZEXT"
109,16,51,2.231,4125.32,0.670775,-0.067203,0.721692,-0.15718,-0.97452,0.12856,0.03402,4122.18,0.334006,-0.184413,0.630236,-0.676191,-0.6593,0.70442,-0.18107,2.21,2.62,2.83,2.8,3.17,3.01,3.01,3.82,3.15,3.9,4.02,3.94,3.78,3.82,3.73,2512,10.466667,60662.234667,245.107666,1018.904358,-222.065582,1.21475865930024,2.21088369937494,2.3779790151674,18.261625,791.455505,137.380722,143.499832,1193.010132,-11.499479,"CRUZEXT"
110,16,51,2.236,4125.34,0.670674,-0.067283,0.721804,-0.157059,-0.97396,0.12796,0.03831,4122.2,0.326941,-0.181154,0.631225,-0.679594,-0.69498,0.71545,-0.15862,2.21,2.62,2.83,2.8,3.17,3.02,3,3.82,3.15,3.9,4.02,3.94,3.78,3.82,3.73,2513,10.470833,60662.238833,245.107666,1018.904358,-222.065582,1.21481199681787,2.21086198711258,2.37803471872057,18.266426,791.461792,137.380249,143.498764,1193.03186,-11.45583,"CRUZEXT"
111,16,51,2.288,4125.36,0.670727,-0.067346,0.721793,-0.156861,-0.97625,0.1273,0.03557,4122.22,0.320487,-0.177423,0.631864,-0.683049,-0.62127,0.71495,-0.17704,2.21,2.62,2.83,2.8,3.17,3.02,3.01,3.82,3.15,3.9,4.02,3.94,3.78,3.82,3.73,2525,10.520833,60662.288833,245.107666,1018.904358,-222.065582,1.21556005521514,2.2101371993153,2.37921844655584,18.308199,791.461304,137.411865,143.52626,1193.165894,-10.849393,"CRUZEXT"
112,16,51,2.293,4125.38,0.670653,-0.067377,0.721896,-0.156686,-0.9756,0.12633,0.03669,4122.24,0.31404,-0.173932,0.632031,-0.686778,-0.66807,0.74149,-0.157,2.21,2.62,2.83,2.8,3.17,3.02,3.01,3.82,3.15,3.9,4.02,3.94,3.78,3.82,3.73,2526,10.525,60662.293,245.107666,1018.904358,-222.065582,1.21566588383511,2.21011944495542,2.37930455240845,18.305973,791.466614,137.422241,143.540863,1193.186401,-10.802123,"CRUZEXT"
113,16,51,2.312,4125.4,0.670727,-0.067452,0.721868,-0.156465,-0.97288,0.12751,0.03489,4122.26,0.308143,-0.170741,0.63211,-0.690168,-0.63327,0.7523,-0.16875,2.21,2.62,2.83,2.8,3.17,3.01,3,3.82,3.15,3.9,4.02,3.94,3.78,3.82,3.73,2531,10.545833,60662.313833,245.107666,1018.904358,-222.065582,1.21607808033697,2.20988300207867,2.37980013732743,18.331408,791.468506,137.436554,143.591629,1193.237671,-10.572738,"CRUZEXT"
114,16,51,2.317,4125.42,0.670654,-0.067483,0.72196,-0.156342,-0.97461,0.1257,0.03817,4122.28,0.301844,-0.167127,0.632864,-0.693139,-0.62068,0.77103,-0.16462,2.21,2.62,2.83,2.8,3.17,3.02,3,3.82,3.15,3.9,4.02,3.94,3.78,3.82,3.73,2532,10.55,60662.318,245.107666,1018.904358,-222.065582,1.21616968199456,2.20984588960526,2.37989544192653,18.340637,791.464661,137.440491,143.60321,1193.252197,-10.525324,"CRUZEXT"
115,16,51,2.369,4125.44,0.670581,-0.067492,0.722051,-0.156233,-0.97573,0.12483,0.03592,4122.3,0.295913,-0.163095,0.633796,-0.6958,-0.58629,0.75598,-0.16874,2.21,2.62,2.83,2.8,3.17,3.02,3,3.82,3.15,3.9,4.02,3.94,3.78,3.82,3.73,2545,10.604167,60662.372167,245.107666,1018.904358,-222.065582,1.21762618082575,2.20936263399152,2.38130671720064,18.418009,791.513,137.45015,143.84462,1193.411011,-9.909867,"CRUZEXT"
116,16,51,2.374,4125.46,0.670761,-0.067554,0.721913,-0.156069,-0.97447,0.12606,0.03664,4122.32,0.289916,-0.15898,0.634762,-0.698392,-0.61135,0.7824,-0.15749,2.21,2.62,2.83,2.8,3.17,3.02,3,3.82,3.15,3.9,4.02,3.94,3.78,3.82,3.73,2546,10.608333,60662.376333,245.107666,1018.904358,-222.065582,1.21777821276768,2.20932994152058,2.38143683407687,18.419365,791.519775,137.450241,143.871872,1193.428345,-9.853194,"CRUZEXT"
117,16,51,2.393,4125.48,0.670669,-0.06763,0.722009,-0.155988,-0.97503,0.12666,0.03887,4122.34,0.284082,-0.155292,0.635937,-0.700547,-0.57933,0.78022,-0.15839,2.21,2.62,2.83,2.8,3.17,3.02,3,3.82,3.15,3.9,4.02,3.94,3.78,3.82,3.73,2550,10.625,60662.393,245.107666,1018.904358,-222.065582,1.21840685930543,2.20921499348381,2.3819551084404,18.432339,791.54364,137.430206,143.986404,1193.501831,-9.626356,"CRUZEXT"
118,16,51,2.398,4125.5,0.670755,-0.067723,0.721956,-0.155824,-0.97635,0.12409,0.03735,4122.36,0.277947,-0.151076,0.637658,-0.702363,-0.54853,0.7981,-0.15456,2.21,2.62,2.83,2.8,3.17,3.01,3,3.82,3.15,3.9,4.02,3.94,3.78,3.82,3.73,2552,10.633333,60662.401333,245.107666,1018.904358,-222.065582,1.21871996288252,2.20911870566216,2.38225043392211,18.439819,791.558716,137.41951,144.039825,1193.535645,-9.498042,"CRUZEXT"
119,16,51,2.446,4125.52,0.670676,-0.067763,0.722043,-0.155739,-0.97857,0.12418,0.03945,4122.38,0.271658,-0.147201,0.63968,-0.703807,-0.59044,0.80809,-0.14296,2.21,2.62,2.83,2.8,3.17,3.02,3,3.82,3.15,3.9,4.02,3.94,3.78,3.82,3.73,2563,10.679167,60662.447167,245.107666,1018.904358,-222.065582,1.2207209539142,2.20888520071655,2.3837684398085,18.501354,791.635254,137.354279,144.418777,1193.778931,-8.828321,"CRUZEXT"
120,16,51,2.451,4125.54,0.670623,-0.067827,0.722107,-0.155647,-0.97606,0.12279,0.038,4122.4,0.265796,-0.143844,0.641592,-0.704998,-0.54532,0.80837,-0.14732,2.21,2.62,2.83,2.8,3.17,3.02,3,3.82,3.15,3.9,4.02,3.94,3.78,3.82,3.73,2564,10.683333,60662.451333,245.107666,1018.904358,-222.065582,1.22093140991193,2.20893128186245,2.38386005314872,18.512739,791.636963,137.344986,144.463333,1193.813232,-8.781259,"CRUZEXT"
121,16,51,2.471,4125.56,0.670917,-0.068123,0.721845,-0.155465,-0.97515,0.12209,0.03718,4122.42,0.259953,-0.140643,0.643125,-0.706424,-0.54189,0.81724,-0.14354,2.21,2.62,2.83,2.8,3.17,3.02,3,3.82,3.15,3.9,4.02,3.94,3.77,3.82,3.73,2569,10.704167,60662.472167,245.107666,1018.904358,-222.065582,1.22194837878571,2.20906038784055,2.38439147819112,18.551977,791.682495,137.320709,144.656036,1193.996826,-8.487239,"CRUZEXT"
122,16,51,2.494,4125.58,0.670894,-0.068191,0.721879,-0.155377,-0.97578,0.12442,0.038,4122.44,0.254162,-0.137231,0.644547,-0.707904,-0.54381,0.81431,-0.15093,2.21,2.62,2.83,2.8,3.17,3.02,3,3.82,3.15,3.9,4.02,3.94,3.78,3.82,3.73,2575,10.729167,60662.497167,245.107666,1018.904358,-222.065582,1.22295011394537,2.20904402184246,2.38505101284267,18.617418,791.736938,137.274811,144.809357,1194.208618,-8.090925,"CRUZEXT"
123,16,51,2.499,4125.6,0.67101,-0.068265,0.721807,-0.155176,-0.97592,0.12469,0.0372,4122.46,0.24812,-0.133704,0.646394,-0.709037,-0.50863,0.79987,-0.14512,2.21,2.62,2.83,2.8,3.17,3.01,3,3.82,3.15,3.9,4.02,3.94,3.78,3.82,3.73,2576,10.733333,60662.501333,245.107666,1018.904358,-222.065582,1.22312226316621,2.20903854918584,2.38516675430024,18.62653,791.749573,137.263397,144.833969,1194.247559,-8.018435,"CRUZEXT"
124,16,51,2.548,4125.62,0.671004,-0.068312,0.721841,-0.155027,-0.97609,0.12558,0.03969,4122.48,0.24245,-0.130754,0.648358,-0.709756,-0.50603,0.80943,-0.13382,2.21,2.62,2.83,2.8,3.17,3.01,3.01,3.82,3.15,3.9,4.02,3.94,3.78,3.82,3.73,2588,10.783333,60662.551333,245.107666,1018.904358,-222.065582,1.22490878009019,2.20871486833733,2.38662113651693,18.765814,791.843689,137.212555,145.071335,1194.622681,-7.172562,"CRUZEXT"
125,16,51,2.553,4125.64,0.671001,-0.068351,0.721875,-0.154864,-0.97487,0.12371,0.03861,4122.5,0.236936,-0.127644,0.650391,-0.710324,-0.48528,0.83125,-0.13735,2.21,2.62,2.83,2.8,3.17,3.02,3,3.82,3.15,3.9,4.02,3.94,3.78,3.82,3.73,2589,10.7875,60662.5555,245.107666,1018.904358,-222.065582,1.225058650358,2.20870435144062,2.38672698152485,18.783396,791.852295,137.206619,145.094223,1194.653076,-7.110937,"CRUZEXT"
126,16,51,2.572,4125.66,0.671175,-0.068473,0.721743,-0.154668,-0.97743,0.12387,0.04061,4122.52,0.231799,-0.124038,0.652683,-0.710555,-0.4649,0.84173,-0.14523,2.21,2.62,2.83,2.8,3.17,3.02,3,3.82,3.15,3.9,4.02,3.94,3.78,3.82,3.73,2593,10.804167,60662.572167,245.107666,1018.904358,-222.065582,1.22563666557321,2.2085496795888,2.38724427444496,18.825785,791.873901,137.209076,145.187134,1194.735352,-6.860778,"CRUZEXT"
127,16,51,2.577,4125.68,0.671199,-0.06849,0.721746,-0.154547,-0.97506,0.12369,0.0377,4122.54,0.226601,-0.120629,0.654944,-0.710738,-0.46123,0.84623,-0.14089,2.21,2.62,2.83,2.8,3.17,3.02,3,3.82,3.15,3.9,4.02,3.94,3.78,3.82,3.73,2595,10.8125,60662.5805,245.107666,1018.904358,-222.065582,1.22594557636551,2.20845953839821,2.38752769877027,18.844152,791.886414,137.216888,145.240738,1194.770752,-6.733935,"CRUZEXT"
128,16,51,2.629,4125.7,0.671543,-0.068415,0.721478,-0.154331,-0.9737,0.12497,0.03673,4122.56,0.221574,-0.117289,0.656854,-0.71112,-0.44967,0.86794,-0.11965,2.21,2.62,2.83,2.8,3.17,3.01,3,3.82,3.15,3.9,4.02,3.94,3.78,3.82,3.73,2607,10.8625,60662.6305,245.107666,1018.904358,-222.065582,1.22747722473436,2.20798439430508,2.38895791150499,18.920586,791.948364,137.238083,145.48407,1194.980713,-6.048928,"CRUZEXT"
129,16,51,2.634,4125.72,0.671506,-0.068551,0.72151,-0.154284,-0.97532,0.1242,0.03348,4122.58,0.216445,-0.114085,0.658312,-0.711872,-0.44812,0.88217,-0.10587,2.21,2.62,2.83,2.8,3.17,3.02,3,3.82,3.15,3.9,4.02,3.94,3.78,3.83,3.73,2608,10.866667,60662.634667,245.107666,1018.904358,-222.065582,1.22757898778777,2.20791009729673,2.38909376318724,18.92474,791.9552,137.238678,145.494629,1194.994507,-5.982831,"CRUZEXT"
130,16,51,2.651,4125.74,0.671441,-0.06869,0.721563,-0.154256,-0.97424,0.12554,0.03287,4122.6,0.210908,-0.110097,0.659484,-0.713076,-0.4299,0.90412,-0.11213,2.21,2.62,2.83,2.8,3.17,3.01,3,3.82,3.15,3.9,4.02,3.94,3.78,3.82,3.73,2612,10.883333,60662.651333,245.107666,1018.904358,-222.065582,1.2281639919023,2.20779040794248,2.38957979173956,18.939035,791.987061,137.24086,145.591705,1195.082886,-5.741039,"CRUZEXT"
131,16,51,2.673,4125.76,0.671619,-0.06876,0.721418,-0.154128,-0.97484,0.12345,0.03456,4122.62,0.205842,-0.107143,0.660661,-0.713916,-0.42402,0.87578,-0.11217,2.21,2.62,2.83,2.8,3.17,3.01,3,3.82,3.15,3.9,4.02,3.94,3.78,3.82,3.73,2618,10.908333,60662.676333,245.107666,1018.904358,-222.065582,1.22922419100283,2.20761400851254,2.39042049575512,18.973946,792.026489,137.23143,145.796219,1195.203003,-5.371735,"CRUZEXT"
132,16,51,2.678,4125.78,0.671572,-0.068833,0.72147,-0.15406,-0.97634,0.12041,0.03394,4122.64,0.200729,-0.104225,0.661841,-0.714711,-0.41275,0.8836,-0.09495,2.21,2.62,2.83,2.8,3.17,3.02,3,3.82,3.15,3.9,4.02,3.94,3.78,3.82,3.73,2619,10.9125,60662.6805,245.107666,1018.904358,-222.065582,1.22941341117634,2.20761234199515,2.39054178888597,18.97588,792.04126,137.236237,145.838272,1195.221802,-5.323596,"CRUZEXT"
133,16,51,2.734,4125.8,0.671899,-0.069002,0.721193,-0.153858,-0.97696,0.11958,0.03373,4122.66,0.194853,-0.101218,0.663174,-0.715533,-0.37882,0.89779,-0.08662,2.21,2.62,2.83,2.8,3.17,3.02,3,3.82,3.15,3.9,4.02,3.94,3.78,3.82,3.73,2632,10.966667,60662.734667,245.107666,1018.904358,-222.065582,1.23148418412448,2.20728689265564,2.39216014803233,19.050449,792.10614,137.193283,146.254532,1195.434448,-4.638938,"CRUZEXT"
134,16,51,2.739,4125.82,0.671912,-0.069056,0.7212,-0.15374,-0.97801,0.12041,0.03639,4122.68,0.188941,-0.098675,0.664696,-0.716061,-0.39385,0.90838,-0.10728,2.21,2.62,2.83,2.8,3.17,3.02,3,3.82,3.15,3.9,4.02,3.94,3.78,3.82,3.73,2634,10.975,60662.743,245.107666,1018.904358,-222.065582,1.23180511889479,2.20724832642886,2.39239901579189,19.065128,792.123169,137.183899,146.312698,1195.481934,-4.520764,"CRUZEXT"
135,16,51,2.744,4125.84,0.67195,-0.069095,0.721189,-0.15361,-0.97597,0.12008,0.03728,4122.7,0.183159,-0.095903,0.666251,-0.716495,-0.39181,0.90594,-0.11532,2.21,2.62,2.83,2.8,3.17,3.01,3,3.82,3.15,3.9,4.02,3.94,3.78,3.82,3.73,2635,10.979167,60662.747167,245.107666,1018.904358,-222.065582,1.23196716469294,2.20725928982341,2.39249039365719,19.067728,792.128052,137.183929,146.345505,1195.50708,-4.474521,"CRUZEXT"
136,16,51,2.786,4125.86,0.672125,-0.069194,0.721057,-0.15342,-0.97494,0.11991,0.03617,4122.72,0.177375,-0.093238,0.667749,-0.716907,-0.38363,0.92351,-0.10915,2.21,2.62,2.83,2.8,3.17,3.02,3,3.82,3.15,3.9,4.02,3.94,3.78,3.82,3.73,2645,11.020833,60662.788833,245.107666,1018.904358,-222.065582,1.23352146377443,2.2071473276843,2.39357297469834,19.146824,792.211853,137.107697,146.622467,1195.765381,-3.903974,"CRUZEXT"
137,16,51,2.791,4125.88,0.672169,-0.069162,0.721057,-0.153238,-0.97171,0.12052,0.03772,4122.74,0.171401,-0.090603,0.669171,-0.717373,-0.36408,0.93536,-0.09736,2.21,2.62,2.83,2.8,3.17,3.02,3,3.82,3.15,3.9,4.03,3.94,3.78,3.82,3.73,2646,11.025,60662.793,245.107666,1018.904358,-222.065582,1.23369777744302,2.20714605941096,2.3936845913815,19.151836,792.224976,137.100235,146.656326,1195.793213,-3.846671,"CRUZEXT"
138,16,51,2.813,4125.9,0.672342,-0.069141,0.720954,-0.152973,-0.97646,0.11959,0.03596,4122.76,0.16531,-0.087811,0.670785,-0.717642,-0.34108,0.91272,-0.09525,2.21,2.62,2.83,2.8,3.17,3.01,3,3.82,3.15,3.9,4.02,3.95,3.78,3.82,3.73,2651,11.045833,60662.813833,245.107666,1018.904358,-222.065582,1.23456972445339,2.20707934699349,2.39429383642239,19.192621,792.273193,137.058823,146.797882,1195.963501,-3.493446,"CRUZEXT"
139,16,51,2.821,4125.92,0.672386,-0.0691,0.72096,-0.152769,-0.97834,0.11836,0.03634,4122.78,0.159121,-0.085015,0.672163,-0.718088,-0.3517,0.91802,-0.0847,2.21,2.62,2.83,2.8,3.17,3.01,3.01,3.82,3.15,3.9,4.03,3.95,3.78,3.82,3.73,2653,11.054167,60662.822167,245.107666,1018.904358,-222.065582,1.23489731007845,2.20705451588961,2.39452220931295,19.214911,792.293701,137.042816,146.851181,1196.027588,-3.360721,"CRUZEXT"
140,16,51,2.869,4125.94,0.672439,-0.069087,0.720952,-0.152582,-0.97688,0.1183,0.03741,4122.8,0.153469,-0.082588,0.673765,-0.7181,-0.33566,0.90252,-0.09406,2.21,2.62,2.83,2.8,3.17,3.01,3,3.82,3.15,3.9,4.02,3.95,3.79,3.82,3.73,2665,11.104167,60662.872167,245.107666,1018.904358,-222.065582,1.23661930184323,2.20701048370031,2.39563710157069,19.330393,792.414246,137.035004,147.083084,1196.475098,-2.568813,"CRUZEXT"
141,16,51,2.874,4125.96,0.672586,-0.069091,0.720872,-0.15231,-0.97754,0.11724,0.03643,4122.82,0.148095,-0.080204,0.675151,-0.718196,-0.31651,0.91457,-0.08576,2.21,2.62,2.83,2.8,3.17,3.01,3.01,3.82,3.15,3.9,4.02,3.95,3.79,3.82,3.73,2666,11.108333,60662.876333,245.107666,1018.904358,-222.065582,1.23668278832088,2.20696080883845,2.39572419147046,19.348251,792.418579,137.036026,147.075012,1196.510254,-2.492923,"CRUZEXT"
142,16,51,2.892,4125.98,0.672625,-0.069037,0.720888,-0.152087,-0.97789,0.11797,0.03741,4122.84,0.142702,-0.077802,0.676554,-0.718232,-0.30617,0.93373,-0.08404,2.21,2.62,2.83,2.8,3.17,3.01,3,3.82,3.15,3.9,4.01,3.96,3.79,3.82,3.73,2670,11.125,60662.893,245.107666,1018.904358,-222.065582,1.23710987513291,2.20697700912251,2.39597397029122,19.386158,792.470276,137.047867,147.09462,1196.697388,-2.215675,"CRUZEXT"
143,16,51,2.897,4126,0.672818,-0.06902,0.720751,-0.151888,-0.97677,0.12137,0.03343,4122.86,0.137475,-0.075477,0.677664,-0.718453,-0.3027,0.93642,-0.085,2.21,2.62,2.83,2.8,3.17,3.02,3,3.82,3.15,3.9,4,3.96,3.79,3.82,3.73,2671,11.129167,60662.897167,245.107666,1018.904358,-222.065582,1.23719964596149,2.20692688353861,2.39607776369718,19.399569,792.480286,137.054642,147.094177,1196.732178,-2.136655,"CRUZEXT"
144,16,51,2.932,4126.02,0.67284,-0.069095,0.720744,-0.15179,-0.9733,0.12212,0.03275,4122.88,0.132638,-0.073307,0.677956,-0.719311,-0.29564,0.91727,-0.07361,2.21,2.62,2.83,2.8,3.17,3.01,3,3.82,3.15,3.9,3.99,3.96,3.8,3.82,3.73,2680,11.166667,60662.934667,245.107666,1018.904358,-222.065582,1.23794170699397,2.20674283296195,2.39671446289251,19.481295,792.601379,137.049591,147.08522,1197.085693,-1.514984,"CRUZEXT"
145,16,51,2.936,4126.04,0.672879,-0.069244,0.720695,-0.151784,-0.97388,0.12149,0.03306,4122.9,0.12806,-0.071355,0.677887,-0.720401,-0.27176,0.92292,-0.07146,2.21,2.62,2.83,2.8,3.17,3.01,3.01,3.82,3.15,3.9,3.98,3.96,3.8,3.82,3.73,2681,11.170833,60662.938833,245.107666,1018.904358,-222.065582,1.23800396205431,2.20673268141895,2.39676276975597,19.492205,792.608398,137.050766,147.081985,1197.121216,-1.458155,"CRUZEXT"
146,16,51,2.99,4126.06,0.673047,-0.06944,0.720523,-0.151763,-0.97878,0.11816,0.03612,4122.92,0.123461,-0.069495,0.678218,-0.721075,-0.25741,0.92308,-0.08568,2.21,2.62,2.83,2.8,3.17,3.01,3.01,3.82,3.15,3.9,3.97,3.96,3.8,3.82,3.73,2694,11.225,60662.993,245.107666,1018.904358,-222.065582,1.23842245224164,2.20663286611278,2.3971176212604,19.61087,792.693176,137.106934,146.868851,1197.70105,-0.638066,"CRUZEXT"
147,16,51,2.997,4126.08,0.673098,-0.06959,0.720455,-0.151793,-0.98036,0.11448,0.03333,4122.94,0.118575,-0.066421,0.678939,-0.721506,-0.26578,0.93375,-0.08482,2.21,2.62,2.83,2.8,3.17,3.01,3.01,3.82,3.15,3.9,3.97,3.97,3.81,3.82,3.73,2695,11.229167,60662.997167,245.107666,1018.904358,-222.065582,1.23840403065205,2.20662590095507,2.3971128974862,19.618814,792.70105,137.109512,146.834778,1197.751831,-0.574051,"CRUZEXT"
148,16,51,3.014,4126.1,0.673289,-0.069697,0.720271,-0.151771,-0.97581,0.11508,0.03163,4122.96,0.11478,-0.064728,0.679555,-0.721693,-0.25136,0.93928,-0.08074,2.21,2.62,2.83,2.8,3.17,3.01,3,3.82,3.15,3.9,3.97,3.98,3.81,3.82,3.73,2700,11.25,60663.018,245.107666,1018.904358,-222.065582,1.23847259466839,2.20659197338969,2.39718786210477,19.652754,792.729919,137.11882,146.734161,1197.96228,-0.287913,"CRUZEXT"
149,16,51,3.019,4126.12,0.673262,-0.06992,0.720256,-0.15186,-0.97457,0.11809,0.02961,4122.98,0.110999,-0.063333,0.679795,-0.722183,-0.23059,0.94458,-0.07779,2.21,2.62,2.83,2.8,3.17,3.01,3.01,3.82,3.15,3.9,3.97,3.98,3.82,3.82,3.73,2701,11.254167,60663.022167,245.107666,1018.904358,-222.065582,1.23845222766767,2.20653660808422,2.39722834047077,19.654202,792.736633,137.11824,146.701523,1197.997681,-0.219152,"CRUZEXT"
150,16,51,3.068,4126.14,0.673198,-0.07011,0.72029,-0.151892,-0.97161,0.1186,0.03385,4123,0.107179,-0.061977,0.679838,-0.722836,-0.21388,0.9368,-0.07701,2.21,2.62,2.83,2.8,3.17,3.01,3.01,3.82,3.15,3.91,3.97,3.98,3.82,3.82,3.73,2712,11.3,60663.068,245.107666,1018.904358,-222.065582,1.23829054496227,2.20616598954528,2.39748355583913,19.651426,792.777161,137.179779,146.434006,1198.310303,0.332046,"CRUZEXT"
151,16,51,3.073,4126.16,0.673289,-0.070345,0.720192,-0.151845,-0.97477,0.11494,0.03514,4123.02,0.103673,-0.06053,0.680334,-0.723003,-0.21284,0.93202,-0.08881,2.21,2.62,2.83,2.8,3.17,3.01,3.01,3.82,3.15,3.9,3.97,3.99,3.83,3.82,3.73,2714,11.308333,60663.076333,245.107666,1018.904358,-222.065582,1.23824411050721,2.20612726503256,2.39749192327871,19.644598,792.785522,137.192917,146.383591,1198.368408,0.417473,"CRUZEXT"
152,16,51,3.092,4126.18,0.673224,-0.070449,0.720255,-0.151784,-0.97665,0.11204,0.02999,4123.04,0.100388,-0.059066,0.680958,-0.723001,-0.21012,0.94057,-0.08479,2.21,2.62,2.83,2.8,3.17,3.01,3.01,3.82,3.15,3.9,3.97,3.99,3.83,3.82,3.73,2718,11.325,60663.093,245.107666,1018.904358,-222.065582,1.23812876800245,2.20603697008164,2.39750703779325,19.634933,792.792847,137.210129,146.281555,1198.471924,0.576167,"CRUZEXT"
153,16,51,3.097,4126.2,0.673285,-0.070478,0.720207,-0.151731,-0.97592,0.11398,0.02921,4123.06,0.097292,-0.057691,0.681257,-0.723253,-0.21207,0.96606,-0.0757,2.21,2.62,2.83,2.8,3.17,3.01,3.01,3.82,3.15,3.9,3.98,4,3.84,3.82,3.73,2719,11.329167,60663.097167,245.107666,1018.904358,-222.065582,1.23806749851497,2.205988483516,2.39751555662956,19.637373,792.791138,137.20549,146.247314,1198.490479,0.615566,"CRUZEXT"
154,16,51,3.149,4126.22,0.673178,-0.070659,0.720278,-0.151784,-0.97396,0.11865,0.03067,4123.08,0.094298,-0.056354,0.681381,-0.723638,-0.20642,0.95872,-0.07668,2.21,2.62,2.83,2.8,3.17,3.01,3.01,3.82,3.15,3.9,3.98,4.01,3.84,3.82,3.73,2732,11.383333,60663.151333,245.107666,1018.904358,-222.065582,1.23748962448632,2.20584905086883,2.39729092335327,19.573048,792.802917,137.151138,145.9048,1198.777832,0.967938,"CRUZEXT"
155,16,51,3.154,4126.24,0.673094,-0.070806,0.72033,-0.151845,-0.97566,0.11497,0.0312,4123.1,0.091548,-0.055098,0.68135,-0.724117,-0.19212,0.93975,-0.08409,2.21,2.62,2.83,2.8,3.17,3.01,3.01,3.82,3.15,3.91,3.99,4.01,3.85,3.82,3.73,2733,11.3875,60663.1555,245.107666,1018.904358,-222.065582,1.23735744254434,2.20582232659903,2.39723451265274,19.565742,792.803284,137.150742,145.855515,1198.791992,0.981996,"CRUZEXT"
156,16,51,3.172,4126.26,0.673238,-0.071114,0.720175,-0.151795,-0.97644,0.11124,0.03402,4123.12,0.089165,-0.053852,0.68138,-0.72448,-0.19156,0.9288,-0.08463,2.21,2.62,2.83,2.8,3.17,3.01,3.01,3.82,3.15,3.91,3.99,4.01,3.85,3.82,3.73,2737,11.404167,60663.172167,245.107666,1018.904358,-222.065582,1.23704804008914,2.20574253981311,2.39711887653944,19.55035,792.797363,137.128799,145.708572,1198.878052,1.089098,"CRUZEXT"
157,16,51,3.177,4126.28,0.673189,-0.071115,0.720232,-0.15174,-0.9767,0.10925,0.03423,4123.14,0.087217,-0.052651,0.681963,-0.724256,-0.19751,0.9406,-0.09092,2.21,2.62,2.83,2.8,3.17,3.02,3,3.82,3.15,3.91,4.01,4.02,3.86,3.82,3.72,2739,11.4125,60663.1805,245.107666,1018.904358,-222.065582,1.23692305771777,2.20573737212698,2.39704619004426,19.543915,792.791992,137.113922,145.654037,1198.910645,1.116129,"CRUZEXT"
158,16,51,3.23,4126.3,0.673339,-0.071177,0.720116,-0.151598,-0.97824,0.11033,0.03495,4123.16,0.085189,-0.051663,0.682843,-0.72374,-0.16703,0.93658,-0.08301,2.21,2.62,2.83,2.8,3.17,3.02,3,3.82,3.15,3.91,4.01,4.02,3.86,3.82,3.72,2751,11.4625,60663.2305,245.107666,1018.904358,-222.065582,1.23659901291926,2.20561185304036,2.39696505742164,19.450205,792.768494,137.04187,145.494202,1199.000977,1.249483,"CRUZEXT"
159,16,51,3.235,4126.32,0.673263,-0.071195,0.720192,-0.151567,-0.97682,0.11382,0.03516,4123.18,0.083339,-0.050742,0.683357,-0.723535,-0.16035,0.94064,-0.0628,2.21,2.62,2.83,2.8,3.17,3.02,3,3.82,3.16,3.91,4.02,4.03,3.87,3.82,3.72,2753,11.470833,60663.238833,245.107666,1018.904358,-222.065582,1.23652309164787,2.20556774843945,2.39696010493447,19.42811,792.758118,137.041107,145.463821,1199.005737,1.26774,"CRUZEXT"
160,16,51,3.251,4126.34,0.673175,-0.071164,0.720287,-0.151518,-0.97426,0.1148,0.03495,4123.2,0.081717,-0.049994,0.683553,-0.723587,-0.17409,0.94545,-0.06517,2.21,2.62,2.83,2.8,3.17,3.02,3,3.82,3.16,3.91,4.03,4.03,3.87,3.81,3.72,2756,11.483333,60663.251333,245.107666,1018.904358,-222.065582,1.23645193123182,2.20556176838928,2.39692157532191,19.394825,792.761658,137.035492,145.433746,1199.021729,1.281453,"CRUZEXT"
161,16,51,3.271,4126.36,0.673312,-0.071283,0.72017,-0.151411,-0.97668,0.11094,0.03235,4123.22,0.080131,-0.049419,0.684062,-0.723323,-0.16589,0.96036,-0.08109,2.21,2.62,2.83,2.8,3.17,3.02,3,3.83,3.16,3.91,4.03,4.03,3.87,3.81,3.72,2761,11.504167,60663.272167,245.107666,1018.904358,-222.065582,1.23639211853997,2.20554462757354,2.39690079103612,19.349848,792.755798,137.024902,145.40744,1199.034058,1.297661,"CRUZEXT"
162,16,51,3.277,4126.38,0.673221,-0.071268,0.72025,-0.151445,-0.9758,0.11138,0.03207,4123.24,0.078764,-0.04896,0.684476,-0.723113,-0.16206,0.95035,-0.08332,2.21,2.62,2.83,2.8,3.17,3.02,2.99,3.83,3.16,3.92,4.04,4.04,3.88,3.81,3.72,2763,11.5125,60663.2805,245.107666,1018.904358,-222.065582,1.23639679299828,2.205582403272,2.39686750487795,19.334541,792.75415,137.016602,145.417206,1199.028076,1.271934,"CRUZEXT"
163,16,51,3.337,4126.4,0.673293,-0.07113,0.720194,-0.151452,-0.97675,0.11886,0.03324,4123.26,0.077648,-0.048576,0.684613,-0.723129,-0.1573,0.93633,-0.08229,2.21,2.62,2.83,2.8,3.17,3.02,2.99,3.83,3.17,3.92,4.05,4.04,3.88,3.8,3.72,2777,11.570833,60663.338833,245.107666,1018.904358,-222.065582,1.23615483815927,2.20576172164414,2.39654512472052,19.22876,792.743408,137.036041,145.395523,1198.985718,1.098716,"CRUZEXT"
164,16,51,3.343,4126.42,0.673195,-0.071158,0.720268,-0.151525,-0.9767,0.1167,0.0342,4123.28,0.076903,-0.048106,0.684492,-0.723355,-0.1699,0.96995,-0.11068,2.21,2.62,2.83,2.8,3.17,3.02,2.98,3.83,3.17,3.92,4.05,4.05,3.89,3.8,3.72,2778,11.575,60663.343,245.107666,1018.904358,-222.065582,1.23610707928175,2.2057600525961,2.39651699477375,19.225912,792.739319,137.031265,145.382278,1198.984497,1.091918,"CRUZEXT"
165,16,51,3.348,4126.44,0.673126,-0.071155,0.720323,-0.151572,-0.97742,0.11438,0.03271,4123.3,0.076377,-0.047941,0.684215,-0.723684,-0.20201,1.02942,-0.13372,2.21,2.62,2.83,2.8,3.17,3.02,2.98,3.83,3.18,3.92,4.06,4.05,3.89,3.8,3.72,2780,11.583333,60663.351333,245.107666,1018.904358,-222.065582,1.23603649703606,2.20582714885998,2.39640876025915,19.224243,792.727966,137.018738,145.367538,1198.990967,1.057334,"CRUZEXT"
166,16,51,3.389,4126.46,0.673176,-0.071233,0.720251,-0.151653,-0.97902,0.1156,0.03484,4123.32,0.076019,-0.047056,0.685083,-0.722958,-0.1992,0.98265,-0.04614,2.21,2.62,2.83,2.8,3.17,3.02,2.98,3.83,3.19,3.92,4.06,4.04,3.89,3.8,3.72,2790,11.625,60663.393,245.107666,1018.904358,-222.065582,1.23565889087301,2.205968421252,2.39603817770704,19.20376,792.709534,136.977692,145.318878,1198.917969,0.847882,"CRUZEXT"
167,16,51,3.395,4126.48,0.673104,-0.071316,0.720275,-0.151819,-0.97492,0.11633,0.03521,4123.34,0.076254,-0.044694,0.684605,-0.723535,-0.08665,0.88975,-0.04483,2.21,2.62,2.83,2.8,3.17,3.02,2.98,3.83,3.2,3.92,4.07,4.05,3.9,3.79,3.72,2791,11.629167,60663.397167,245.107666,1018.904358,-222.065582,1.23557708711533,2.20596078155297,2.3959945148916,19.208782,792.697815,136.975235,145.30246,1198.903442,0.823217,"CRUZEXT"
168,16,51,3.414,4126.5,0.673035,-0.071476,0.720277,-0.152043,-0.97234,0.11635,0.03725,4123.36,0.076439,-0.045399,0.683841,-0.724194,-0.14099,0.82071,-0.06029,2.21,2.62,2.83,2.8,3.17,3.02,2.98,3.83,3.2,3.92,4.07,4.05,3.9,3.79,3.72,2796,11.65,60663.418,245.107666,1018.904358,-222.065582,1.23522751272731,2.20605391738683,2.39568728716132,19.235527,792.678772,136.986969,145.241425,1198.855713,0.672744,"CRUZEXT"
169,16,51,3.421,4126.52,0.672951,-0.071522,0.720307,-0.152248,-0.97445,0.11138,0.04049,4123.38,0.078692,-0.045759,0.683714,-0.724051,-0.16087,0.86373,-0.08709,2.21,2.62,2.83,2.8,3.17,3.02,2.98,3.83,3.21,3.91,4.07,4.06,3.9,3.79,3.71,2797,11.654167,60663.422167,245.107666,1018.904358,-222.065582,1.23515577087092,2.2060786152261,2.395618862665,19.242863,792.672424,136.995392,145.229446,1198.846313,0.639566,"CRUZEXT"
170,16,51,3.452,4126.54,0.672864,-0.071554,0.720344,-0.152439,-0.98099,0.10986,0.03479,4123.4,0.081124,-0.046546,0.68421,-0.723263,-0.15459,0.92259,-0.07521,2.21,2.62,2.83,2.8,3.17,3.02,2.97,3.84,3.22,3.91,4.08,4.05,3.91,3.79,3.71,2805,11.6875,60663.4555,245.107666,1018.904358,-222.065582,1.23459913725564,2.20620813044883,2.39514722517303,19.244518,792.620728,137.024658,145.178513,1198.682861,0.301206,"CRUZEXT"
171,16,51,3.456,4126.56,0.672738,-0.071637,0.720394,-0.152721,-0.97613,0.11979,0.0391,4123.42,0.084138,-0.04761,0.68397,-0.723076,-0.14896,0.94296,-0.06688,2.22,2.62,2.83,2.8,3.17,3.02,2.97,3.84,3.22,3.91,4.09,4.06,3.91,3.79,3.72,2806,11.691667,60663.459667,245.107666,1018.904358,-222.065582,1.2345309995471,2.2062264340299,2.39508711285083,19.246912,792.602722,137.037506,145.175354,1198.657959,0.252524,"CRUZEXT"
172,16,51,3.504,4126.58,0.672589,-0.071636,0.72049,-0.152925,-0.97257,0.12434,0.03575,4123.44,0.087637,-0.048799,0.683524,-0.723004,-0.1679,0.92062,-0.08233,2.22,2.62,2.83,2.8,3.17,3.03,2.97,3.83,3.23,3.9,4.09,4.05,3.92,3.79,3.71,2817,11.7375,60663.5055,245.107666,1018.904358,-222.065582,1.23359645282617,2.20631327625116,2.39441928539234,19.230236,792.524231,137.099518,145.108475,1198.319824,-0.328929,"CRUZEXT"
173,16,51,3.509,4126.6,0.672538,-0.071644,0.720501,-0.153091,-0.97604,0.11511,0.03373,4123.46,0.091579,-0.050049,0.683168,-0.722766,-0.17693,0.91364,-0.08531,2.22,2.62,2.83,2.8,3.17,3.03,2.97,3.83,3.24,3.9,4.09,4.06,3.92,3.78,3.71,2818,11.741667,60663.509667,245.107666,1018.904358,-222.065582,1.23351001721292,2.2063610465295,2.39431937491172,19.221703,792.51709,137.103073,145.106018,1198.291626,-0.398654,"CRUZEXT"
174,16,51,3.532,4126.62,0.672368,-0.071668,0.720597,-0.153377,-0.97419,0.11373,0.02869,4123.48,0.096099,-0.051377,0.682755,-0.722476,-0.18973,0.93311,-0.07797,2.22,2.62,2.83,2.8,3.17,3.03,2.96,3.83,3.24,3.9,4.1,4.06,3.93,3.78,3.71,2824,11.766667,60663.534667,245.107666,1018.904358,-222.065582,1.23300480249574,2.20660679528611,2.39376724098075,19.204536,792.476196,137.09346,145.113373,1198.080078,-0.847048,"CRUZEXT"
175,16,51,3.537,4126.64,0.672199,-0.071657,0.720697,-0.153653,-0.97321,0.11811,0.03333,4123.5,0.100777,-0.053031,0.681922,-0.722506,-0.1984,0.93722,-0.0814,2.22,2.62,2.83,2.8,3.17,3.03,2.96,3.83,3.24,3.89,4.1,4.06,3.93,3.78,3.71,2825,11.770833,60663.538833,245.107666,1018.904358,-222.065582,1.23290001461391,2.2066355450603,2.39367396753673,19.199266,792.465637,137.087662,145.110062,1198.039551,-0.924834,"CRUZEXT"
176,16,51,3.589,4126.66,0.672165,-0.071604,0.720686,-0.153878,-0.97967,0.11703,0.03455,4123.52,0.105561,-0.054741,0.680942,-0.722619,-0.20771,0.92372,-0.07936,2.22,2.62,2.83,2.8,3.17,3.03,2.96,3.84,3.25,3.89,4.1,4.06,3.93,3.78,3.71,2838,11.825,60663.593,245.107666,1018.904358,-222.065582,1.23131290610289,2.20698387812036,2.39234273348309,19.168423,792.333496,137.039856,144.989548,1197.533447,-1.926027,"CRUZEXT"
177,16,51,3.594,4126.68,0.672087,-0.071446,0.720742,-0.154032,-0.97878,0.11386,0.03716,4123.54,0.110779,-0.056376,0.680071,-0.722533,-0.23214,0.91985,-0.08514,2.22,2.61,2.83,2.8,3.17,3.03,2.95,3.83,3.25,3.89,4.1,4.05,3.94,3.78,3.71,2839,11.829167,60663.597167,245.107666,1018.904358,-222.065582,1.23116066400169,2.20697383160961,2.39225648671415,19.166101,792.329102,137.029648,144.972885,1197.483765,-2.001918,"CRUZEXT"
178,16,51,3.611,4126.7,0.672113,-0.071416,0.720693,-0.154161,-0.97534,0.11415,0.03493,4123.56,0.116773,-0.058126,0.67949,-0.721996,-0.24911,0.91159,-0.10941,2.22,2.61,2.83,2.8,3.17,3.04,2.95,3.84,3.25,3.89,4.1,4.06,3.94,3.77,3.71,2843,11.845833,60663.613833,245.107666,1018.904358,-222.065582,1.23064555961913,2.206959959108,2.39194513497002,19.150368,792.294861,136.987457,144.932449,1197.29248,-2.297199,"CRUZEXT"
179,16,51,3.632,4126.72,0.672043,-0.071215,0.720749,-0.154298,-0.9733,0.11539,0.03591,4123.58,0.122878,-0.060201,0.678654,-0.721599,-0.22888,0.91966,-0.08496,2.22,2.61,2.83,2.81,3.17,3.04,2.95,3.83,3.26,3.88,4.11,4.06,3.94,3.77,3.71,2848,11.866667,60663.634667,245.107666,1018.904358,-222.065582,1.23000241814854,2.20684845279407,2.39164607483721,19.135452,792.243896,136.953079,144.881088,1197.033325,-2.644448,"CRUZEXT"
180,16,51,3.637,4126.74,0.671988,-0.070961,0.720802,-0.154407,-0.97435,0.11872,0.03587,4123.6,0.129326,-0.062404,0.677651,-0.721228,-0.23818,0.9273,-0.05383,2.22,2.6,2.83,2.81,3.17,3.04,2.95,3.83,3.26,3.88,4.11,4.05,3.94,3.77,3.71,2849,11.870833,60663.638833,245.107666,1018.904358,-222.065582,1.22982762585095,2.20681469553176,2.39156799374457,19.140799,792.228455,136.948318,144.851501,1196.98999,-2.703756,"CRUZEXT"
181,16,51,3.692,4126.76,0.672019,-0.070708,0.720796,-0.154416,-0.97553,0.11663,0.03938,4123.62,0.136079,-0.064837,0.676589,-0.720767,-0.27626,0.92132,-0.0629,2.22,2.6,2.83,2.82,3.17,3.04,2.95,3.83,3.26,3.88,4.1,4.05,3.95,3.77,3.71,2862,11.925,60663.693,245.107666,1018.904358,-222.065582,1.22760275705976,2.20678508886733,2.39018679725218,19.161299,792.116699,136.93515,144.522659,1196.454102,-3.636722,"CRUZEXT"
182,16,51,3.697,4126.78,0.67195,-0.070456,0.720864,-0.154514,-0.97857,0.11391,0.03477,4123.64,0.143311,-0.06739,0.674551,-0.721042,-0.3011,0.89856,-0.10407,2.22,2.59,2.83,2.82,3.17,3.04,2.94,3.83,3.26,3.88,4.11,4.04,3.95,3.76,3.71,2863,11.929167,60663.697167,245.107666,1018.904358,-222.065582,1.22745614799992,2.20678560987357,2.39009315398466,19.160345,792.10968,136.937378,144.501526,1196.418701,-3.699534,"CRUZEXT"
183,16,51,3.712,4126.8,0.671995,-0.070093,0.720845,-0.154571,-0.9752,0.12113,0.03367,4123.66,0.151285,-0.070428,0.672,-0.721504,-0.28929,0.86898,-0.1446,2.22,2.58,2.83,2.83,3.17,3.04,2.94,3.83,3.27,3.88,4.11,4.04,3.95,3.76,3.71,2867,11.945833,60663.713833,245.107666,1018.904358,-222.065582,1.22685233954154,2.20686031000848,2.38963764969278,19.149073,792.063599,136.975266,144.409378,1196.299683,-3.96091,"CRUZEXT"
184,16,51,3.717,4126.82,0.671902,-0.069848,0.720942,-0.154632,-0.9744,0.12868,0.03777,4123.68,0.159973,-0.073674,0.670285,-0.720901,-0.30172,0.89594,-0.12847,2.23,2.58,2.83,2.84,3.17,3.04,2.94,3.83,3.27,3.88,4.11,4.04,3.95,3.76,3.71,2868,11.95,60663.718,245.107666,1018.904358,-222.065582,1.22673282928014,2.20689061192746,2.38953256583845,19.147991,792.057556,136.983795,144.398697,1196.266602,-4.031962,"CRUZEXT"
185,16,51,3.766,4126.84,0.671799,-0.069588,0.721075,-0.154582,-0.97848,0.12524,0.03423,4123.7,0.169076,-0.076818,0.669375,-0.719339,-0.31445,0.91989,-0.13062,2.23,2.57,2.83,2.84,3.17,3.05,2.94,3.83,3.27,3.87,4.11,4.04,3.95,3.76,3.71,2880,12,60663.768,245.107666,1018.904358,-222.065582,1.22539020311209,2.20704884989168,2.38852506937946,19.082815,791.976013,137.234787,144.364578,1195.702393,-4.97701,"CRUZEXT"
186,16,51,3.771,4126.86,0.671814,-0.069521,0.721058,-0.154621,-0.97729,0.1189,0.03165,4123.72,0.178244,-0.08008,0.668188,-0.717873,-0.33707,0.91268,-0.15635,2.23,2.57,2.83,2.85,3.17,3.05,2.93,3.83,3.27,3.87,4.11,4.03,3.95,3.75,3.71,2881,12.004167,60663.772167,245.107666,1018.904358,-222.065582,1.22529428782755,2.20703544882384,2.38847665678226,19.06937,791.964233,137.250443,144.372147,1195.638794,-5.061014,"CRUZEXT"
187,16,51,3.792,4126.88,0.671665,-0.069489,0.721169,-0.154768,-0.97229,0.1251,0.02909,4123.74,0.187231,-0.0834,0.66653,-0.716748,-0.34738,0.91375,-0.11766,2.23,2.56,2.83,2.87,3.17,3.05,2.93,3.83,3.27,3.87,4.11,4.03,3.95,3.75,3.71,2886,12.025,60663.793,245.107666,1018.904358,-222.065582,1.22500698555692,2.20694885434229,2.38837605083673,19.002872,791.916565,137.331619,144.473389,1195.299683,-5.472431,"CRUZEXT"
188,16,51,3.797,4126.9,0.671536,-0.069451,0.721249,-0.154972,-0.977,0.13051,0.02802,4123.76,0.195732,-0.086908,0.664593,-0.715858,-0.36074,0.90958,-0.07678,2.23,2.56,2.84,2.88,3.17,3.05,2.92,3.83,3.27,3.87,4.11,4.03,3.95,3.75,3.71,2887,12.029167,60663.797167,245.107666,1018.904358,-222.065582,1.22498308477431,2.20696174974179,2.38834842519601,18.989855,791.910034,137.350952,144.502457,1195.240112,-5.554966,"CRUZEXT"
189,16,51,3.848,4126.92,0.671286,-0.069606,0.721395,-0.1553,-0.97742,0.12824,0.03174,4123.78,0.204158,-0.090449,0.662562,-0.714948,-0.4029,0.89389,-0.10575,2.24,2.56,2.84,2.89,3.17,3.05,2.92,3.83,3.28,3.87,4.11,4.03,3.95,3.75,3.72,2900,12.083333,60663.851333,245.107666,1018.904358,-222.065582,1.22451579342554,2.20721561851826,2.38780645756769,18.853704,791.851868,137.320343,144.854141,1194.456421,-6.700795,"CRUZEXT"
190,16,51,3.853,4126.94,0.671079,-0.069725,0.7215,-0.155656,-0.97382,0.11998,0.03054,4123.8,0.212834,-0.094341,0.660539,-0.713785,-0.42939,0.88907,-0.13393,2.24,2.56,2.84,2.9,3.17,3.05,2.92,3.83,3.28,3.87,4.11,4.03,3.95,3.75,3.72,2901,12.0875,60663.8555,245.107666,1018.904358,-222.065582,1.22453736669086,2.20725305323415,2.38778440224692,18.852005,791.842834,137.309174,144.895813,1194.402832,-6.7819,"CRUZEXT"
191,16,51,3.872,4126.96,0.671063,-0.069897,0.721444,-0.155907,-0.97241,0.11562,0.03615,4123.82,0.221144,-0.098557,0.658025,-0.713011,-0.41804,0.88368,-0.12155,2.23,2.56,2.83,2.91,3.17,3.05,2.91,3.83,3.28,3.87,4.12,4.02,3.95,3.75,3.72,2905,12.104167,60663.872167,245.107666,1018.904358,-222.065582,1.2244821616669,2.20733551517318,2.38767009320391,18.842876,791.826294,137.264008,144.988693,1194.23291,-7.037415,"CRUZEXT"
192,16,51,3.877,4126.98,0.671032,-0.069848,0.721441,-0.156078,-0.97501,0.11625,0.04215,4123.84,0.22934,-0.102659,0.655822,-0.711872,-0.42641,0.89647,-0.10812,2.23,2.56,2.83,2.92,3.17,3.05,2.91,3.83,3.28,3.86,4.12,4.02,3.95,3.75,3.72,2907,12.1125,60663.8805,245.107666,1018.904358,-222.065582,1.22442119449135,2.20741888237693,2.3875512226651,18.846119,791.806213,137.240967,145.029358,1194.151855,-7.185048,"CRUZEXT"
193,16,51,3.933,4127,0.671188,-0.070008,0.721278,-0.15609,-0.98036,0.11623,0.04382,4123.86,0.237226,-0.106901,0.654183,-0.710169,-0.46605,0.90145,-0.13234,2.23,2.56,2.83,2.93,3.17,3.05,2.9,3.83,3.28,3.87,4.12,4.02,3.95,3.75,3.73,2920,12.166667,60663.934667,245.107666,1018.904358,-222.065582,1.22436291813794,2.20803105615714,2.38692741650526,18.846886,791.767944,137.027008,145.354935,1193.69812,-8.044181,"CRUZEXT"
194,16,51,3.938,4127.02,0.67119,-0.069841,0.721302,-0.156044,-0.98232,0.11419,0.04177,4123.88,0.24458,-0.11105,0.652451,-0.70863,-0.49179,0.87313,-0.15243,2.23,2.56,2.83,2.94,3.17,3.05,2.9,3.83,3.28,3.87,4.12,4.02,3.95,3.75,3.73,2921,12.170833,60663.938833,245.107666,1018.904358,-222.065582,1.22436867825599,2.2080718318141,2.38689203002477,18.838404,791.772217,137.007751,145.380341,1193.666016,-8.102396,"CRUZEXT"
195,16,51,3.944,4127.04,0.671141,-0.06969,0.721367,-0.156023,-0.97299,0.1209,0.04197,4123.9,0.252313,-0.115189,0.650515,-0.707036,-0.51536,0.86133,-0.14422,2.23,2.56,2.82,2.95,3.17,3.05,2.89,3.83,3.28,3.86,4.12,4.02,3.95,3.75,3.73,2923,12.179167,60663.947167,245.107666,1018.904358,-222.065582,1.22431279627335,2.2080534861072,2.38687384596519,18.83847,791.767395,136.976028,145.415939,1193.572266,-8.215533,"CRUZEXT"
196,16,51,3.989,4127.06,0.671234,-0.069395,0.721338,-0.155886,-0.97229,0.12695,0.03992,4123.92,0.260478,-0.120327,0.648709,-0.704875,-0.48739,0.84647,-0.11747,2.23,2.56,2.82,2.96,3.16,3.05,2.89,3.83,3.29,3.86,4.12,4.02,3.95,3.75,3.73,2934,12.225,60663.993,245.107666,1018.904358,-222.065582,1.22463166836459,2.20810429750768,2.3870291659977,18.788454,791.792358,136.919907,145.784027,1193.09314,-8.785628,"CRUZEXT"
197,16,51,3.994,4127.08,0.671253,-0.069104,0.721382,-0.155734,-0.97787,0.12059,0.03847,4123.94,0.267179,-0.124936,0.646083,-0.703977,-0.48851,0.84773,-0.12397,2.23,2.56,2.82,2.97,3.16,3.05,2.88,3.83,3.29,3.86,4.12,4.02,3.95,3.75,3.73,2935,12.229167,60663.997167,245.107666,1018.904358,-222.065582,1.22471688671503,2.20809094771767,2.38709645465849,18.78397,791.794495,136.916229,145.830826,1193.049072,-8.822252,"CRUZEXT"
198,16,51,4.013,4127.1,0.671439,-0.068821,0.721282,-0.155514,-0.979,0.11989,0.03538,4123.96,0.27306,-0.129382,0.643638,-0.703156,-0.50994,0.83343,-0.13696,2.23,2.56,2.81,2.98,3.16,3.05,2.88,3.83,3.28,3.87,4.12,4.02,3.95,3.75,3.73,2939,12.245833,60664.013833,245.107666,1018.904358,-222.065582,1.225065926323,2.20811672460047,2.38729484488651,18.774511,791.786804,136.903412,145.997955,1192.93042,-8.935227,"CRUZEXT"
199,16,51,4.017,4127.12,0.671491,-0.06853,0.7213,-0.155341,-0.97879,0.12571,0.0278,4123.98,0.279346,-0.133767,0.64071,-0.70254,-0.5829,0.86094,-0.15391,2.22,2.55,2.81,2.99,3.16,3.05,2.87,3.83,3.29,3.86,4.12,4.02,3.95,3.75,3.74,2940,12.25,60664.018,245.107666,1018.904358,-222.065582,1.22513744731007,2.20806377925787,2.3873912738778,18.776852,791.793335,136.90799,146.035294,1192.886963,-8.953903,"CRUZEXT"
200,16,51,4.07,4127.14,0.671501,-0.068361,0.721325,-0.155255,-0.97437,0.13112,0.03047,4124,0.285954,-0.137909,0.637152,-0.702317,-0.58316,0.87156,-0.15445,2.22,2.55,2.81,3,3.15,3.04,2.87,3.83,3.29,3.86,4.12,4.02,3.95,3.75,3.74,2953,12.304167,60664.072167,245.107666,1018.904358,-222.065582,1.22513869215438,2.20696233514339,2.38844729697407,18.825289,791.746826,137.142517,146.233871,1192.280396,-9.169433,"CRUZEXT"
201,16,51,4.075,4127.16,0.671708,-0.067966,0.721206,-0.155083,-0.9713,0.13112,0.03641,4124.02,0.292422,-0.141649,0.633528,-0.702188,-0.56744,0.79672,-0.1563,2.22,2.55,2.8,3,3.15,3.04,2.87,3.83,3.29,3.86,4.12,4.01,3.95,3.75,3.74,2954,12.308333,60664.076333,245.107666,1018.904358,-222.065582,1.22507475723407,2.20687472412751,2.38849035712989,18.83205,791.732178,137.172226,146.235016,1192.227051,-9.201096,"CRUZEXT"
202,16,51,4.09,4127.18,0.671852,-0.067653,0.721159,-0.154815,-0.97693,0.12446,0.03369,4124.04,0.299269,-0.145577,0.629868,-0.701792,-0.58051,0.71817,-0.198,2.22,2.55,2.8,3.01,3.15,3.04,2.86,3.83,3.29,3.85,4.12,4.01,3.95,3.75,3.74,2958,12.325,60664.093,245.107666,1018.904358,-222.065582,1.22497068002502,2.20659794782643,2.38868890356444,18.855799,791.702393,137.286179,146.275696,1192.040771,-9.310554,"CRUZEXT"
203,16,51,4.112,4127.2,0.672098,-0.067138,0.721051,-0.154475,-0.97639,0.12702,0.0305,4124.06,0.306393,-0.149861,0.626393,-0.700925,-0.60088,0.70635,-0.2176,2.22,2.55,2.8,3.02,3.14,3.04,2.86,3.83,3.29,3.86,4.13,4.01,3.95,3.75,3.74,2963,12.345833,60664.113833,245.107666,1018.904358,-222.065582,1.22488727457685,2.20626815423454,2.38895137026137,18.864656,791.672424,137.406189,146.325485,1191.836182,-9.414668,"CRUZEXT"
204,16,51,4.117,4127.22,0.672067,-0.067149,0.721095,-0.154399,-0.96629,0.13907,0.03421,4124.08,0.313714,-0.153347,0.623811,-0.699233,-0.59863,0.72475,-0.19972,2.22,2.55,2.79,3.02,3.14,3.03,2.86,3.83,3.29,3.85,4.13,4.01,3.95,3.75,3.75,2964,12.35,60664.118,245.107666,1018.904358,-222.065582,1.22483940570367,2.20618355426636,2.38900176238262,18.868822,791.668701,137.42868,146.324814,1191.794556,-9.43143,"CRUZEXT"
205,16,51,4.168,4127.24,0.672027,-0.06723,0.721132,-0.154365,-0.96713,0.1396,0.03509,4124.1,0.321586,-0.156879,0.621556,-0.696878,-0.65805,0.78784,-0.20654,2.22,2.55,2.78,3.03,3.13,3.03,2.86,3.82,3.29,3.85,4.12,4.01,3.95,3.75,3.74,2976,12.4,60664.168,245.107666,1018.904358,-222.065582,1.2243044885618,2.20548135531652,2.38933166137885,18.828333,791.648254,137.641586,146.390915,1191.258545,-9.823021,"CRUZEXT"
206,16,51,4.173,4127.26,0.672362,-0.067761,0.720773,-0.154351,-0.97991,0.11712,0.03029,4124.12,0.329088,-0.160661,0.618611,-0.695133,-0.61961,0.79168,-0.20918,2.22,2.55,2.78,3.04,3.13,3.03,2.86,3.82,3.29,3.85,4.12,4.01,3.95,3.75,3.75,2978,12.408333,60664.176333,245.107666,1018.904358,-222.065582,1.22425386412087,2.20539205219243,2.38938470980095,18.819485,791.637329,137.667648,146.404541,1191.189697,-9.871534,"CRUZEXT"
207,16,51,4.193,4127.28,0.672304,-0.067909,0.720775,-0.154528,-0.97996,0.11295,0.03186,4124.14,0.336034,-0.164249,0.614976,-0.694196,-0.61912,0.74604,-0.20009,2.23,2.55,2.78,3.05,3.13,3.02,2.86,3.82,3.29,3.85,4.13,4.01,3.95,3.75,3.75,2982,12.425,60664.193,245.107666,1018.904358,-222.065582,1.22411303621388,2.20517802174319,2.38949932672387,18.793753,791.613098,137.689713,146.407104,1191.067993,-9.937012,"CRUZEXT"
208,16,51,4.198,4127.3,0.672537,-0.068096,0.720518,-0.154634,-0.97729,0.12324,0.03395,4124.16,0.342435,-0.167648,0.612263,-0.692652,-0.66725,0.71741,-0.207,2.23,2.56,2.77,3.05,3.13,3.02,2.85,3.82,3.29,3.85,4.13,4,3.95,3.75,3.75,2984,12.433333,60664.201333,245.107666,1018.904358,-222.065582,1.22397578736623,2.20509453584725,2.3894912792632,18.791504,791.603577,137.692871,146.390472,1191.012085,-9.983432,"CRUZEXT"
209,16,51,4.249,4127.32,0.672459,-0.068213,0.720551,-0.154766,-0.98043,0.11818,0.03392,4124.18,0.349941,-0.171024,0.610144,-0.68994,-0.68042,0.73103,-0.20904,2.23,2.55,2.77,3.06,3.13,3.02,2.85,3.82,3.29,3.84,4.12,4,3.95,3.75,3.75,2996,12.483333,60664.251333,245.107666,1018.904358,-222.065582,1.22370993541967,2.20475951402282,2.38964139565008,18.673193,791.525085,137.620468,146.493317,1190.628174,-10.330367,"CRUZEXT"
210,16,51,4.254,4127.34,0.672381,-0.068337,0.720583,-0.154898,-0.97595,0.11473,0.03212,4124.2,0.357099,-0.174812,0.607624,-0.687542,-0.63991,0.72681,-0.20428,2.23,2.56,2.76,3.07,3.12,3.01,2.85,3.82,3.3,3.84,4.12,4.01,3.95,3.75,3.75,2997,12.4875,60664.2555,245.107666,1018.904358,-222.065582,1.22368795379004,2.20469215734512,2.3896917348364,18.664743,791.510925,137.609024,146.49855,1190.592896,-10.344501,"CRUZEXT"
211,16,51,4.27,4127.36,0.672438,-0.068684,0.720477,-0.154993,-0.96927,0.11727,0.03713,4124.22,0.362646,-0.17836,0.605179,-0.685883,-0.68699,0.71711,-0.2198,2.23,2.56,2.75,3.08,3.12,3.01,2.85,3.82,3.3,3.84,4.12,4.01,3.95,3.75,3.75,3001,12.504167,60664.272167,245.107666,1018.904358,-222.065582,1.22358659343672,2.20445037168172,2.38985800657304,18.640881,791.474243,137.593674,146.521667,1190.44812,-10.420525,"CRUZEXT"
212,16,51,4.292,4127.38,0.6724,-0.068614,0.720533,-0.154928,-0.97382,0.1155,0.03601,4124.24,0.369067,-0.181389,0.603172,-0.683426,-0.71985,0.70435,-0.232,2.23,2.56,2.75,3.08,3.11,3.01,2.84,3.82,3.3,3.84,4.12,4.01,3.95,3.75,3.75,3006,12.525,60664.293,245.107666,1018.904358,-222.065582,1.22323636500252,2.20416554149711,2.38990568465546,18.626444,791.426636,137.583878,146.485489,1190.278687,-10.538131,"CRUZEXT"
213,16,51,4.297,4127.4,0.672427,-0.06888,0.720498,-0.154859,-0.98169,0.11166,0.03322,4124.26,0.376841,-0.184774,0.601195,-0.680011,-0.73943,0.68769,-0.21884,2.23,2.56,2.74,3.09,3.11,3,2.84,3.82,3.3,3.84,4.12,4.01,3.96,3.75,3.75,3007,12.529167,60664.297167,245.107666,1018.904358,-222.065582,1.22320802128417,2.20417805687695,2.38987552071216,18.616001,791.421692,137.577927,146.494629,1190.252319,-10.580245,"CRUZEXT"
214,16,51,4.345,4127.42,0.67224,-0.068871,0.720673,-0.154857,-0.97454,0.12141,0.03153,4124.28,0.383162,-0.188319,0.597902,-0.678407,-0.68333,0.66664,-0.20796,2.23,2.56,2.74,3.1,3.11,3,2.84,3.82,3.3,3.84,4.12,4.02,3.96,3.75,3.75,3019,12.579167,60664.347167,245.107666,1018.904358,-222.065582,1.22288344500036,2.20384289615751,2.38998755237034,18.540035,791.443054,137.498108,146.610596,1189.81958,-10.995909,"CRUZEXT"
215,16,51,4.35,4127.44,0.672087,-0.068854,0.720828,-0.154809,-0.97001,0.13082,0.03796,4124.3,0.388751,-0.19198,0.594346,-0.677325,-0.68909,0.66343,-0.21661,2.23,2.56,2.73,3.1,3.1,3,2.84,3.82,3.3,3.83,4.12,4.01,3.96,3.75,3.75,3020,12.583333,60664.351333,245.107666,1018.904358,-222.065582,1.22278412542768,2.20374969490559,2.3900128422301,18.541407,791.443054,137.500732,146.591797,1189.783691,-11.008434,"CRUZEXT"
216,16,51,4.371,4127.46,0.672061,-0.068706,0.720897,-0.154668,-0.97539,0.12598,0.0399,4124.32,0.393272,-0.195083,0.59211,-0.675785,-0.72147,0.64242,-0.24831,2.23,2.57,2.72,3.11,3.1,3,2.84,3.81,3.3,3.83,4.12,4.02,3.96,3.75,3.75,3025,12.604167,60664.372167,245.107666,1018.904358,-222.065582,1.22201126903054,2.20331086928594,2.38993520230208,18.560791,791.398438,137.512527,146.419037,1189.61731,-11.103029,"CRUZEXT"
217,16,51,4.377,4127.48,0.67203,-0.068521,0.720972,-0.154532,-0.98514,0.11564,0.03373,4124.34,0.399367,-0.197469,0.590187,-0.673195,-0.81653,0.6661,-0.27039,2.23,2.57,2.72,3.11,3.09,2.99,2.83,3.81,3.3,3.83,4.12,4.02,3.96,3.75,3.75,3027,12.6125,60664.3805,245.107666,1018.904358,-222.065582,1.22169675536318,2.20321490381641,2.38982435635256,18.576986,791.375366,137.522751,146.347809,1189.570557,-11.155043,"CRUZEXT"
218,16,51,4.429,4127.5,0.672273,-0.068147,0.720816,-0.154369,-0.9785,0.12163,0.03556,4124.36,0.405243,-0.200276,0.588173,-0.670612,-0.7145,0.63689,-0.26575,2.23,2.58,2.71,3.11,3.09,2.99,2.83,3.81,3.3,3.83,4.12,4.02,3.96,3.75,3.75,3039,12.6625,60664.4305,245.107666,1018.904358,-222.065582,1.22130096617765,2.20316584023982,2.38961612389565,18.606997,791.369934,137.579391,146.340744,1189.385986,-11.410053,"CRUZEXT"
219,16,51,4.434,4127.52,0.672244,-0.068111,0.720834,-0.154427,-0.97002,0.13271,0.03814,4124.38,0.410447,-0.203535,0.584969,-0.669267,-0.70717,0.58449,-0.24956,2.23,2.58,2.71,3.12,3.09,2.99,2.83,3.81,3.3,3.83,4.12,4.02,3.96,3.75,3.74,3040,12.666667,60664.434667,245.107666,1018.904358,-222.065582,1.22127510709482,2.20317009913886,2.38959537718411,18.607359,791.374695,137.594681,146.34407,1189.369141,-11.436179,"CRUZEXT"
220,16,51,4.451,4127.54,0.672235,-0.067993,0.72086,-0.154394,-0.96497,0.13297,0.03887,4124.4,0.415313,-0.207358,0.581695,-0.667943,-0.70843,0.54508,-0.25445,2.23,2.59,2.71,3.12,3.07,2.99,2.83,3.81,3.3,3.83,4.12,4.02,3.96,3.75,3.73,3044,12.683333,60664.451333,245.107666,1018.904358,-222.065582,1.22101099810174,2.20306135709913,2.38952891106393,18.641396,791.37677,137.640091,146.298187,1189.299561,-11.503994,"CRUZEXT"
221,16,51,4.473,4127.56,0.672369,-0.067758,0.720798,-0.154205,-0.97607,0.12275,0.03081,4124.42,0.420462,-0.210685,0.579646,-0.665457,-0.82804,0.57537,-0.24906,2.23,2.59,2.7,3.13,3.07,2.98,2.83,3.81,3.3,3.83,4.11,4.02,3.95,3.75,3.72,3050,12.708333,60664.476333,245.107666,1018.904358,-222.065582,1.22085805350705,2.20315071581737,2.38934480413887,18.648916,791.394836,137.703018,146.331268,1189.191895,-11.698943,"CRUZEXT"
222,16,51,4.479,4127.58,0.67222,-0.067709,0.720933,-0.154243,-0.98793,0.11771,0.03158,4124.44,0.426832,-0.213426,0.577418,-0.662459,-0.76545,0.61192,-0.23685,2.23,2.59,2.69,3.13,3.07,2.98,2.83,3.81,3.3,3.83,4.11,4.03,3.95,3.75,3.71,3051,12.7125,60664.4805,245.107666,1018.904358,-222.065582,1.22091107800785,2.20320383065177,2.38932827310398,18.646084,791.402893,137.706497,146.364105,1189.172363,-11.741572,"CRUZEXT"
223,16,51,4.529,4127.6,0.672224,-0.067549,0.72092,-0.154357,-0.97815,0.1295,0.03517,4124.46,0.431979,-0.217049,0.574074,-0.66085,-0.71969,0.60275,-0.24983,2.23,2.6,2.69,3.13,3.06,2.98,2.83,3.81,3.3,3.83,4.11,4.02,3.95,3.75,3.71,3063,12.7625,60664.5305,245.107666,1018.904358,-222.065582,1.22135763986746,2.20311148103385,2.38970461819475,18.584461,791.407104,137.84404,146.679932,1188.814331,-12.083464,"CRUZEXT"
224,16,51,4.534,4127.62,0.672175,-0.067567,0.720941,-0.154467,-0.96917,0.1322,0.03678,4124.48,0.435802,-0.220684,0.571372,-0.659477,-0.71195,0.55511,-0.26787,2.23,2.61,2.68,3.13,3.06,2.98,2.83,3.81,3.3,3.83,4.11,4.02,3.95,3.75,3.7,3064,12.766667,60664.534667,245.107666,1018.904358,-222.065582,1.22137466100182,2.20306199733489,2.38976288147516,18.588991,791.403137,137.849014,146.695419,1188.784058,-12.095257,"CRUZEXT"
225,16,51,4.552,4127.64,0.672165,-0.067517,0.720943,-0.154524,-0.97785,0.11975,0.02968,4124.5,0.440235,-0.223568,0.569963,-0.656775,-0.86689,0.53472,-0.28205,2.23,2.61,2.67,3.13,3.05,2.98,2.83,3.81,3.3,3.83,4.11,4.03,3.95,3.75,3.7,3069,12.7875,60664.5555,245.107666,1018.904358,-222.065582,1.22148532222878,2.20298243118456,2.38991025928454,18.604654,791.379578,137.851517,146.768143,1188.69165,-12.157758,"CRUZEXT"
226,16,51,4.556,4127.66,0.672307,-0.06794,0.720739,-0.154666,-0.98002,0.11295,0.0275,4124.52,0.445116,-0.226198,0.56867,-0.653698,-0.82962,0.54532,-0.26411,2.23,2.62,2.66,3.14,3.05,2.98,2.83,3.81,3.3,3.83,4.1,4.03,3.95,3.76,3.7,3070,12.791667,60664.559667,245.107666,1018.904358,-222.065582,1.22155594544613,2.20301525611322,2.38992441368243,18.608162,791.374146,137.842819,146.799179,1188.678589,-12.180534,"CRUZEXT"
227,16,51,4.605,4127.68,0.672247,-0.06813,0.720725,-0.15491,-0.97105,0.12559,0.03275,4124.54,0.450307,-0.229287,0.566181,-0.651222,-0.81831,0.57427,-0.25317,2.22,2.62,2.65,3.14,3.04,2.98,2.83,3.81,3.3,3.83,4.1,4.03,3.95,3.76,3.7,3081,12.8375,60664.6055,245.107666,1018.904358,-222.065582,1.2224122556057,2.20323225875668,2.39026838395484,18.59421,791.401917,137.75856,147.104965,1188.599731,-12.27273,"CRUZEXT"
228,16,51,4.61,4127.7,0.672263,-0.068475,0.720645,-0.15506,-0.9694,0.1302,0.0417,4124.56,0.454596,-0.232331,0.563674,-0.649335,-0.78809,0.55729,-0.27829,2.22,2.63,2.65,3.14,3.04,2.98,2.83,3.81,3.3,3.84,4.1,4.03,3.95,3.76,3.7,3083,12.845833,60664.613833,245.107666,1018.904358,-222.065582,1.22248071715898,2.20315763919134,2.39038373692848,18.610668,791.393005,137.756165,147.135101,1188.562256,-12.2751,"CRUZEXT"
229,16,51,4.631,4127.72,0.672374,-0.068282,0.720581,-0.154964,-0.97494,0.11591,0.04189,4124.58,0.457832,-0.235449,0.562346,-0.647086,-0.73387,0.48178,-0.29581,2.22,2.63,2.64,3.14,3.04,2.98,2.83,3.82,3.3,3.84,4.1,4.03,3.95,3.76,3.69,3088,12.866667,60664.634667,245.107666,1018.904358,-222.065582,1.22248490468769,2.2028999531322,2.39063269965317,18.626705,791.341492,137.765396,147.158386,1188.464233,-12.273784,"CRUZEXT"
230,16,51,4.653,4127.74,0.672451,-0.068055,0.720572,-0.15477,-0.9842,0.10842,0.03146,4124.6,0.460892,-0.238975,0.560986,-0.644798,-0.88729,0.47808,-0.27201,2.22,2.64,2.63,3.14,3.04,2.98,2.83,3.81,3.3,3.85,4.09,4.02,3.95,3.76,3.69,3093,12.8875,60664.6555,245.107666,1018.904358,-222.065582,1.22262442783946,2.20273446265923,2.39088056418519,18.621332,791.291504,137.758621,147.22966,1188.367676,-12.297344,"CRUZEXT"
231,16,51,4.662,4127.76,0.672719,-0.068162,0.720339,-0.154646,-0.97886,0.12111,0.03455,4124.62,0.465296,-0.241265,0.558898,-0.642591,-0.85362,0.54098,-0.2575,2.21,2.64,2.63,3.15,3.04,2.97,2.83,3.82,3.3,3.85,4.09,4.03,3.95,3.77,3.69,3095,12.895833,60664.663833,245.107666,1018.904358,-222.065582,1.22269601871467,2.20266130171156,2.39099650006442,18.610725,791.282227,137.761887,147.257797,1188.335449,-12.293589,"CRUZEXT"
232,16,51,4.709,4127.78,0.672705,-0.068182,0.720367,-0.154568,-0.96654,0.13499,0.03575,4124.64,0.469005,-0.243896,0.556394,-0.641073,-0.83677,0.50602,-0.29654,2.21,2.65,2.62,3.15,3.04,2.98,2.84,3.82,3.3,3.85,4.08,4.03,3.94,3.77,3.69,3106,12.941667,60664.709667,245.107666,1018.904358,-222.065582,1.22333104566689,2.20257501745073,2.39148688807527,18.609118,791.289429,137.868591,147.488693,1188.212036,-12.325809,"CRUZEXT"
233,16,51,4.714,4127.8,0.672855,-0.067981,0.720312,-0.154257,-0.96507,0.12784,0.03317,4124.66,0.47166,-0.24699,0.554346,-0.639714,-0.75762,0.42955,-0.31191,2.21,2.65,2.62,3.15,3.04,2.97,2.84,3.81,3.3,3.85,4.08,4.03,3.94,3.78,3.69,3108,12.95,60664.718,245.107666,1018.904358,-222.065582,1.22347841980093,2.2026588501725,2.39150136670195,18.612228,791.295959,137.89325,147.5448,1188.203003,-12.358191,"CRUZEXT"
234,16,51,4.824,4127.82,0.672897,-0.067687,0.720386,-0.153859,-0.97576,0.1193,0.02802,4124.68,0.475524,-0.250005,0.551872,-0.637818,-0.87174,0.4517,-0.28732,2.2,2.65,2.61,3.15,3.04,2.97,2.84,3.82,3.3,3.85,4.08,4.02,3.94,3.78,3.69,3134,13.058333,60664.826333,245.107666,1018.904358,-222.065582,1.22610771820425,2.20292346944186,2.39293052184078,18.738823,791.361023,138.138489,148.328217,1188.134033,-12.240544,"CRUZEXT"
235,16,51,4.847,4127.84,0.672931,-0.067525,0.720427,-0.153585,-0.98239,0.12151,0.03127,4124.7,0.478791,-0.253224,0.549039,-0.636547,-0.83794,0.45588,-0.26972,2.2,2.66,2.61,3.15,3.04,2.97,2.84,3.82,3.3,3.86,4.08,4.02,3.94,3.79,3.69,3139,13.079167,60664.847167,245.107666,1018.904358,-222.065582,1.22661652680505,2.20308116360729,2.39310407318937,18.743927,791.367188,138.107788,148.454269,1188.189941,-12.182572,"CRUZEXT"
236,16,51,4.856,4127.86,0.673243,-0.066999,0.720236,-0.153347,-0.97975,0.13198,0.03359,4124.72,0.482356,-0.255847,0.546806,-0.634727,-0.84797,0.48436,-0.28835,2.19,2.66,2.61,3.15,3.04,2.97,2.85,3.82,3.3,3.86,4.08,4.02,3.93,3.79,3.69,3142,13.091667,60664.859667,245.107666,1018.904358,-222.065582,1.22700624226317,2.20324095886116,2.39319942227686,18.747755,791.378601,138.080627,148.555008,1188.234497,-12.154522,"CRUZEXT"
237,16,51,4.862,4127.88,0.673268,-0.066977,0.720225,-0.153297,-0.97832,0.12939,0.03549,4124.74,0.485432,-0.25787,0.545662,-0.632544,-0.77019,0.422,-0.30894,2.19,2.67,2.6,3.15,3.04,2.97,2.85,3.82,3.3,3.86,4.08,4.02,3.93,3.79,3.69,3143,13.095833,60664.863833,245.107666,1018.904358,-222.065582,1.22714471425424,2.20328480471153,2.39324560708124,18.754055,791.375,138.071899,148.591797,1188.245605,-12.144308,"CRUZEXT"
238,16,51,4.87,4127.9,0.673757,-0.067706,0.719705,-0.15327,-0.97947,0.11532,0.03282,4124.76,0.488051,-0.26061,0.544866,-0.630087,-0.89343,0.401,-0.30563,2.19,2.67,2.6,3.16,3.04,2.97,2.85,3.82,3.29,3.87,4.08,4.02,3.93,3.8,3.69,3145,13.104167,60664.872167,245.107666,1018.904358,-222.065582,1.22736538039171,2.20334379291848,2.39332955082549,18.752363,791.386292,138.062302,148.647675,1188.265625,-12.120024,"CRUZEXT"
239,16,51,4.875,4127.92,0.673743,-0.067781,0.719689,-0.153373,-0.976,0.11916,0.03401,4124.78,0.492382,-0.263186,0.543957,-0.626421,-0.88787,0.41523,-0.28755,2.18,2.67,2.6,3.16,3.04,2.98,2.86,3.82,3.29,3.87,4.08,4.02,3.92,3.8,3.69,3146,13.108333,60664.876333,245.107666,1018.904358,-222.065582,1.22749036845114,2.2033881531294,2.3933665935275,18.755892,791.394043,138.05484,148.684723,1188.27002,-12.120061,"CRUZEXT"
240,16,51,4.88,4127.94,0.673722,-0.067898,0.719684,-0.15344,-0.97409,0.12889,0.0312,4124.8,0.49502,-0.265583,0.543366,-0.623838,-0.7695,0.39842,-0.2738,2.18,2.68,2.59,3.16,3.04,2.98,2.86,3.82,3.29,3.88,4.08,4.02,3.91,3.81,3.69,3147,13.1125,60664.8805,245.107666,1018.904358,-222.065582,1.22759384276933,2.20348183716746,2.39334276834599,18.755411,791.394592,138.058136,148.713837,1188.289551,-12.127322,"CRUZEXT"
241,16,51,4.885,4127.96,0.673716,-0.067988,0.719671,-0.15349,-0.97353,0.12552,0.03584,4124.82,0.498312,-0.267551,0.542516,-0.621111,-0.95274,0.43239,-0.30167,2.18,2.68,2.59,3.16,3.04,2.99,2.86,3.83,3.29,3.88,4.08,4.02,3.91,3.81,3.69,3149,13.120833,60664.888833,245.107666,1018.904358,-222.065582,1.22777568730666,2.20353870094444,2.39340392458076,18.76092,791.402283,138.05162,148.764114,1188.300537,-12.118068,"CRUZEXT"
242,16,51,4.894,4127.98,0.673699,-0.068005,0.719688,-0.153477,-0.97578,0.11504,0.03427,4124.84,0.501786,-0.269163,0.541469,-0.618524,-0.83641,0.40677,-0.30781,2.18,2.68,2.59,3.16,3.04,2.99,2.86,3.83,3.29,3.89,4.08,4.01,3.91,3.81,3.68,3151,13.129167,60664.897167,245.107666,1018.904358,-222.065582,1.22793019755678,2.20355493437009,2.39348653149861,18.764004,791.40979,138.041122,148.80661,1188.302856,-12.103744,"CRUZEXT"
243,16,51,4.898,4128,0.673928,-0.068506,0.719446,-0.153384,-0.97663,0.11094,0.0317,4124.86,0.504621,-0.271946,0.539321,-0.616876,-0.88588,0.39029,-0.29583,2.18,2.69,2.59,3.16,3.04,2.99,2.86,3.83,3.29,3.89,4.07,4.01,3.9,3.81,3.68,3152,13.133333,60664.901333,245.107666,1018.904358,-222.065582,1.22800228892588,2.20360034773513,2.3934888709012,18.764839,791.415344,138.039886,148.827927,1188.310059,-12.107362,"CRUZEXT"
244,16,51,4.933,4128.02,0.673882,-0.068491,0.719512,-0.15328,-0.97773,0.11583,0.03308,4124.88,0.507413,-0.274958,0.536822,-0.615428,-0.86646,0.36993,-0.28535,2.18,2.69,2.59,3.16,3.04,2.99,2.87,3.83,3.29,3.89,4.07,4.01,3.9,3.82,3.68,3160,13.166667,60664.934667,245.107666,1018.904358,-222.065582,1.22831038087856,2.20371871044159,2.39357119112775,18.756981,791.402039,138.032684,148.93454,1188.296021,-12.142599,"CRUZEXT"
245,16,51,4.939,4128.04,0.673821,-0.068517,0.719582,-0.153208,-0.97914,0.11956,0.02952,4124.9,0.510515,-0.277152,0.534637,-0.613778,-0.8784,0.38464,-0.2779,2.18,2.69,2.58,3.16,3.04,2.99,2.87,3.83,3.29,3.89,4.07,4.01,3.89,3.82,3.68,3162,13.175,60664.943,245.107666,1018.904358,-222.065582,1.22844115031527,2.20380473292289,2.39357185543123,18.739267,791.404175,138.033051,148.983719,1188.291382,-12.17283,"CRUZEXT"
246,16,51,4.975,4128.06,0.673929,-0.068318,0.719538,-0.15303,-0.9747,0.12566,0.03244,4124.92,0.513345,-0.278927,0.533042,-0.611999,-0.85313,0.36326,-0.29061,2.17,2.69,2.58,3.16,3.04,3,2.87,3.83,3.28,3.89,4.07,4,3.89,3.82,3.68,3170,13.208333,60664.976333,245.107666,1018.904358,-222.065582,1.22895397499941,2.20404568837482,2.39366638363936,18.6966,791.41803,138.024384,149.187164,1188.232056,-12.296821,"CRUZEXT"
247,16,51,4.981,4128.08,0.673891,-0.068256,0.719592,-0.152969,-0.97208,0.1232,0.03142,4124.94,0.516432,-0.281059,0.531625,-0.609655,-0.87334,0.3408,-0.30298,2.17,2.69,2.58,3.16,3.04,3,2.88,3.83,3.28,3.89,4.07,4.01,3.89,3.82,3.68,3172,13.216667,60664.984667,245.107666,1018.904358,-222.065582,1.22903758276585,2.20405023598637,2.39371498730578,18.693947,791.407837,138.031952,149.227097,1188.202393,-12.325411,"CRUZEXT"
248,16,51,5.013,4128.1,0.674277,-0.068222,0.719277,-0.152763,-0.97382,0.119,0.0305,4124.96,0.518533,-0.28297,0.530496,-0.607969,-0.80101,0.31454,-0.29583,2.17,2.7,2.58,3.16,3.05,3,2.88,3.83,3.28,3.9,4.07,4,3.88,3.83,3.68,3179,13.245833,60665.013833,245.107666,1018.904358,-222.065582,1.22928566406922,2.20415307603139,2.39377365552127,18.680813,791.38324,138.030945,149.347107,1188.132202,-12.430326,"CRUZEXT"
249,16,51,5.019,4128.12,0.674276,-0.068114,0.719304,-0.152691,-0.97771,0.11837,0.02813,4124.98,0.521196,-0.285167,0.528941,-0.606017,-0.9845,0.35212,-0.29436,2.17,2.7,2.58,3.16,3.05,3.01,2.88,3.83,3.28,3.9,4.06,4,3.88,3.82,3.68,3181,13.254167,60665.022167,245.107666,1018.904358,-222.065582,1.22937722524006,2.20417854161901,2.39380723429391,18.671492,791.376221,138.014114,149.391876,1188.102539,-12.467813,"CRUZEXT"
250,16,51,5.052,4128.14,0.67425,-0.06811,0.719324,-0.15271,-0.97609,0.12125,0.0304,4125,0.523983,-0.287163,0.527215,-0.604172,-0.85366,0.35512,-0.28078,2.17,2.7,2.59,3.16,3.05,3.01,2.89,3.83,3.28,3.9,4.06,4,3.88,3.83,3.68,3189,13.2875,60665.0555,245.107666,1018.904358,-222.065582,1.22987365609579,2.20457124780233,2.39374537325561,18.631582,791.355225,137.896622,149.625076,1188.016846,-12.69794,"CRUZEXT"
251,16,51,5.059,4128.16,0.674352,-0.067952,0.719255,-0.152659,-0.97074,0.12448,0.03395,4125.02,0.525991,-0.289617,0.525215,-0.602997,-0.86257,0.34047,-0.2998,2.17,2.7,2.59,3.16,3.05,3.01,2.89,3.82,3.28,3.89,4.06,4,3.88,3.83,3.68,3190,13.291667,60665.059667,245.107666,1018.904358,-222.065582,1.22994554248947,2.20466543777665,2.39370065314227,18.626635,791.353699,137.880585,149.660446,1188.010132,-12.741764,"CRUZEXT"
252,16,51,5.093,4128.18,0.674359,-0.067823,0.719273,-0.152598,-0.97278,0.11789,0.03498,4125.04,0.527922,-0.292786,0.523233,-0.6015,-0.87566,0.29075,-0.31885,2.18,2.7,2.6,3.16,3.05,3.01,2.9,3.82,3.27,3.9,4.05,4,3.87,3.83,3.68,3198,13.325,60665.093,245.107666,1018.904358,-222.065582,1.23037702696265,2.20508465004309,2.39357187211587,18.600431,791.391235,137.826447,149.896439,1187.893799,-13.029953,"CRUZEXT"
253,16,51,5.098,4128.2,0.674469,-0.068029,0.719174,-0.152489,-0.97897,0.10896,0.02994,4125.06,0.5303,-0.294981,0.52119,-0.600108,-0.90635,0.28927,-0.31274,2.18,2.7,2.61,3.16,3.05,3.01,2.9,3.82,3.27,3.89,4.05,4,3.87,3.83,3.68,3200,13.333333,60665.101333,245.107666,1018.904358,-222.065582,1.23034988035871,2.20508957007743,2.39355002621954,18.599655,791.40387,137.830139,149.916122,1187.847046,-13.093419,"CRUZEXT"
254,16,51,5.132,4128.22,0.674424,-0.067927,0.719244,-0.152402,-0.98213,0.11152,0.03265,4125.08,0.532467,-0.297481,0.518945,-0.598899,-0.93169,0.30873,-0.30798,2.18,2.7,2.62,3.15,3.06,3.01,2.9,3.82,3.27,3.89,4.05,4,3.86,3.83,3.68,3208,13.366667,60665.134667,245.107666,1018.904358,-222.065582,1.2302613888815,2.20552094658314,2.39308114191659,18.606348,791.430908,137.798477,150.002655,1187.750244,-13.426366,"CRUZEXT"
255,16,51,5.137,4128.24,0.674372,-0.067899,0.719296,-0.152403,-0.98106,0.12422,0.03073,4125.1,0.534656,-0.299923,0.516254,-0.598056,-0.90913,0.30722,-0.30362,2.19,2.7,2.63,3.15,3.06,3.01,2.9,3.82,3.26,3.89,4.04,4,3.86,3.83,3.68,3209,13.370833,60665.138833,245.107666,1018.904358,-222.065582,1.2302131249395,2.20556920552708,2.39300445882911,18.605227,791.432739,137.796204,150.000885,1187.741455,-13.465757,"CRUZEXT"
256,16,51,5.171,4128.26,0.674427,-0.067399,0.71931,-0.15231,-0.97583,0.13124,0.03488,4125.12,0.536505,-0.302515,0.513633,-0.597351,-0.88327,0.28327,-0.30094,2.2,2.7,2.64,3.15,3.06,3.01,2.9,3.82,3.26,3.89,4.05,4,3.86,3.83,3.69,3217,13.404167,60665.172167,245.107666,1018.904358,-222.065582,1.22998763387097,2.20599137464732,2.39245775865935,18.60692,791.461914,137.798065,150.040756,1187.660034,-13.791648,"CRUZEXT"
257,16,51,5.193,4128.28,0.67439,-0.067315,0.719338,-0.15238,-0.97334,0.12575,0.03277,4125.14,0.538433,-0.304388,0.511787,-0.596248,-0.90588,0.2737,-0.30954,2.2,2.7,2.65,3.15,3.06,3.01,2.9,3.82,3.26,3.89,4.05,4,3.85,3.83,3.68,3222,13.425,60665.193,245.107666,1018.904358,-222.065582,1.22972438063791,2.206061117734,2.39222461202918,18.618851,791.464478,137.817917,150.016006,1187.594727,-13.937087,"CRUZEXT"
258,16,51,5.198,4128.3,0.674667,-0.067558,0.71905,-0.152408,-0.97559,0.11764,0.03108,4125.16,0.540225,-0.306076,0.510281,-0.595054,-0.87671,0.26671,-0.31799,2.21,2.69,2.66,3.14,3.06,3.01,2.91,3.82,3.25,3.89,4.05,4,3.85,3.83,3.69,3224,13.433333,60665.201333,245.107666,1018.904358,-222.065582,1.22955573888637,2.20605032327613,2.39212833056051,18.613611,791.454468,137.824203,149.985062,1187.567017,-13.986871,"CRUZEXT"
259,16,51,5.25,4128.32,0.674621,-0.067588,0.719057,-0.152563,-0.97693,0.12087,0.03127,4125.18,0.541201,-0.308403,0.509164,-0.593921,-0.95766,0.23868,-0.31494,2.22,2.68,2.67,3.14,3.06,3.01,2.91,3.83,3.25,3.89,4.05,4,3.85,3.83,3.69,3236,13.483333,60665.251333,239.871811,986.810913,-191.042633,1.24600719455206,2.36212605999955,2.24758033421003,18.642775,791.430115,137.780792,149.812332,1187.552002,-14.290239,"CRUZEXT"
260,16,51,5.255,4128.34,0.674564,-0.067685,0.719054,-0.152787,-0.97501,0.12577,0.03054,4125.2,0.543807,-0.309404,0.507565,-0.592386,-0.92599,0.26301,-0.30613,2.23,2.67,2.68,3.14,3.06,3.01,2.91,3.82,3.25,3.89,4.05,3.99,3.84,3.83,3.69,3237,13.4875,60665.2555,239.794846,986.710632,-190.986649,1.24622654185209,2.36263201167928,2.247198039271,18.628656,791.440186,137.777618,149.791931,1187.556763,-14.314245,"CRUZEXT"
261,16,51,5.271,4128.36,0.674571,-0.0677,0.719009,-0.152957,-0.97091,0.12432,0.03165,4125.22,0.545554,-0.311398,0.505893,-0.591163,-0.88447,0.24198,-0.30612,2.24,2.65,2.69,3.13,3.06,3.01,2.91,3.82,3.25,3.89,4.05,3.99,3.84,3.83,3.69,3241,13.504167,60665.272167,239.533981,986.322876,-190.708359,1.24700686486566,2.36473252540897,2.2455288746995,18.614014,791.447327,137.767441,149.744873,1187.57373,-14.413481,"CRUZEXT"
262,16,51,5.291,4128.38,0.674507,-0.067685,0.719045,-0.153081,-0.97044,0.12031,0.03116,4125.24,0.547184,-0.313195,0.504582,-0.589827,-0.89715,0.24207,-0.32582,2.25,2.64,2.7,3.13,3.06,3.01,2.92,3.82,3.24,3.89,4.05,3.99,3.84,3.83,3.69,3246,13.525,60665.293,239.331146,985.889648,-190.361267,1.24744599660226,2.36712100232558,2.24335144445214,18.592794,791.458374,137.770645,149.663788,1187.602905,-14.55499,"CRUZEXT"
263,16,51,5.296,4128.4,0.674554,-0.067822,0.718978,-0.15313,-0.98028,0.11733,0.02994,4125.26,0.549215,-0.314312,0.50364,-0.588148,-0.88016,0.23253,-0.32622,2.26,2.63,2.71,3.13,3.06,3,2.92,3.82,3.24,3.89,4.05,4,3.84,3.83,3.69,3247,13.529167,60665.297167,239.2995,985.804626,-190.295425,1.24747838881868,2.36756249359792,2.24291856064562,18.586102,791.453491,137.774353,149.640381,1187.605957,-14.583882,"CRUZEXT"
264,16,51,5.333,4128.42,0.674451,-0.067818,0.719059,-0.153202,-0.98179,0.11855,0.03094,4125.28,0.55075,-0.315913,0.502778,-0.58659,-0.93394,0.23207,-0.3256,2.27,2.62,2.71,3.12,3.06,3,2.92,3.82,3.24,3.89,4.05,3.99,3.83,3.82,3.69,3256,13.566667,60665.334667,239.041168,984.963562,-189.683792,1.24805628446208,2.37182405068568,2.23890013447414,18.50844,791.43103,137.797134,149.535004,1187.607544,-14.857718,"CRUZEXT"
265,16,51,5.338,4128.44,0.674351,-0.067856,0.719126,-0.153311,-0.97675,0.12268,0.02729,4125.3,0.552768,-0.316835,0.501708,-0.585109,-0.90684,0.24822,-0.32722,2.28,2.61,2.72,3.12,3.06,3.01,2.92,3.82,3.24,3.89,4.05,3.99,3.83,3.83,3.69,3257,13.570833,60665.338833,238.999344,984.86676,-189.618515,1.24813871860338,2.37224963120826,2.2385137348193,18.489779,791.428406,137.80603,149.51091,1187.604126,-14.869593,"CRUZEXT"
266,16,51,5.372,4128.46,0.674367,-0.067738,0.719111,-0.153362,-0.97532,0.12409,0.02754,4125.32,0.553762,-0.318622,0.500698,-0.584063,-0.80103,0.21788,-0.31601,2.29,2.6,2.72,3.12,3.06,3.01,2.92,3.82,3.24,3.89,4.04,3.99,3.83,3.82,3.69,3265,13.604167,60665.372167,238.791077,984.196106,-189.134674,1.24861538105933,2.37549986491388,2.23546583076358,18.380571,791.403687,137.826187,149.420563,1187.592529,-15.043166,"CRUZEXT"
267,16,51,5.377,4128.48,0.674236,-0.067746,0.719197,-0.153532,-0.97173,0.12423,0.02822,4125.34,0.55494,-0.320324,0.499415,-0.583111,-1.00914,0.22456,-0.32312,2.29,2.59,2.73,3.11,3.06,3.01,2.92,3.82,3.23,3.89,4.05,3.99,3.82,3.82,3.69,3267,13.6125,60665.3805,238.733154,984.029907,-189.025848,1.24882443897214,2.37628197124402,2.23479016492109,18.362255,791.391174,137.819916,149.416458,1187.584229,-15.080293,"CRUZEXT"
268,16,51,5.433,4128.5,0.674251,-0.067858,0.719141,-0.153676,-0.97416,0.12087,0.02604,4125.36,0.556509,-0.321466,0.498208,-0.582019,-0.90866,0.21425,-0.31527,2.3,2.58,2.73,3.1,3.06,3,2.93,3.83,3.23,3.9,4.05,3.99,3.82,3.82,3.69,3280,13.666667,60665.434667,238.14624,982.973816,-188.394394,1.25086010830951,2.38146536468611,2.23070710823407,18.21756,791.362488,137.762924,149.358734,1187.575928,-15.326614,"CRUZEXT"
269,16,51,5.438,4128.52,0.67416,-0.067855,0.719197,-0.153815,-0.97482,0.12081,0.0301,4125.38,0.557624,-0.32308,0.496824,-0.58124,-0.91094,0.20414,-0.31651,2.32,2.56,2.74,3.09,3.06,3,2.93,3.83,3.23,3.89,4.05,3.99,3.82,3.83,3.7,3281,13.670833,60665.438833,238.113983,982.913025,-188.351044,1.2509623954106,2.38178546766923,2.23044010296093,18.209448,791.360718,137.759949,149.353729,1187.577759,-15.342511,"CRUZEXT"
270,16,51,5.452,4128.54,0.674076,-0.067845,0.719259,-0.153898,-0.97668,0.12191,0.03102,4125.4,0.558518,-0.325073,0.495603,-0.580313,-0.85733,0.18753,-0.31524,2.33,2.55,2.74,3.09,3.07,3,2.93,3.82,3.23,3.9,4.05,3.99,3.82,3.82,3.69,3285,13.6875,60665.4555,237.985413,982.651611,-188.208374,1.25142377042429,2.38305197675874,2.22941816018233,18.180527,791.348083,137.759659,149.338654,1187.585938,-15.408106,"CRUZEXT"
271,16,51,5.456,4128.56,0.674112,-0.06792,0.719213,-0.153925,-0.97897,0.11806,0.03254,4125.42,0.559455,-0.327054,0.494571,-0.579177,-0.9495,0.20304,-0.31301,2.35,2.53,2.73,3.08,3.07,3,2.93,3.82,3.22,3.9,4.06,3.98,3.82,3.82,3.7,3286,13.691667,60665.459667,237.944656,982.582764,-188.176712,1.25159261130085,2.38337965847426,2.22918409761229,18.180498,791.344849,137.755554,149.342697,1187.581787,-15.427812,"CRUZEXT"
272,16,51,5.51,4128.58,0.673996,-0.067901,0.719303,-0.154019,-0.97618,0.12078,0.03639,4125.44,0.560462,-0.328814,0.493595,-0.578038,-0.91148,0.20806,-0.31855,2.36,2.52,2.73,3.08,3.07,3,2.93,3.83,3.22,3.9,4.06,3.98,3.82,3.82,3.7,3299,13.745833,60665.513833,237.368454,981.666016,-187.79834,1.25370285286155,2.38752296628504,2.22620396028314,18.056208,791.317322,137.734528,149.292419,1187.561157,-15.637591,"CRUZEXT"
273,16,51,5.515,4128.6,0.673958,-0.067781,0.719349,-0.154026,-0.97241,0.12613,0.03495,4125.46,0.561332,-0.331148,0.492127,-0.577111,-0.92419,0.18007,-0.32328,2.36,2.52,2.73,3.07,3.07,3,2.94,3.83,3.22,3.9,4.06,3.98,3.81,3.82,3.7,3300,13.75,60665.518,237.325699,981.601868,-187.777039,1.25390251951338,2.38783553530132,2.22600354019813,18.04619,791.315308,137.74054,149.301041,1187.562622,-15.656849,"CRUZEXT"
274,16,51,5.532,4128.62,0.673832,-0.06774,0.719458,-0.154083,-0.97487,0.12657,0.03265,4125.48,0.562182,-0.332549,0.491048,-0.576398,-0.88719,0.17627,-0.32193,2.37,2.51,2.73,3.07,3.07,3,2.94,3.82,3.22,3.9,4.06,3.98,3.81,3.82,3.7,3304,13.766667,60665.534667,237.15686,981.309631,-187.69931,1.2546784222483,2.38911518417823,2.22515683691079,18.002131,791.318848,137.743195,149.323761,1187.556885,-15.736075,"CRUZEXT"
275,16,51,5.537,4128.64,0.673688,-0.067722,0.719579,-0.15416,-0.97663,0.12174,0.0324,4125.5,0.56267,-0.334448,0.489841,-0.575849,-0.92083,0.17723,-0.31224,2.38,2.5,2.73,3.06,3.07,3,2.94,3.82,3.21,3.9,4.06,3.98,3.81,3.83,3.7,3305,13.770833,60665.538833,237.112839,981.234741,-187.683624,1.25489577836852,2.38947131093428,2.22492186091249,17.99328,791.322205,137.743027,149.332642,1187.563599,-15.762361,"CRUZEXT"
276,16,51,5.585,4128.66,0.673627,-0.067737,0.719613,-0.15426,-0.97616,0.12258,0.03062,4125.52,0.563041,-0.336474,0.488704,-0.575273,-0.89999,0.18769,-0.31177,2.38,2.5,2.73,3.06,3.07,3,2.95,3.82,3.21,3.9,4.06,3.98,3.81,3.82,3.7,3317,13.820833,60665.588833,236.428879,979.993164,-187.510223,1.25849833595851,2.39458480415328,2.22183025069092,17.817375,791.282532,137.792679,149.495941,1187.594971,-16.044657,"CRUZEXT"
277,16,51,5.59,4128.68,0.673485,-0.067743,0.71972,-0.154375,-0.97595,0.12453,0.03074,4125.54,0.563167,-0.338698,0.487527,-0.574843,-0.89737,0.18593,-0.31691,2.39,2.49,2.73,3.05,3.07,2.99,2.95,3.82,3.21,3.9,4.06,3.97,3.81,3.82,3.71,3318,13.825,60665.593,236.375397,979.878784,-187.505035,1.25882244472527,2.39499337345348,2.22160421554317,17.797447,791.279541,137.80011,149.514893,1187.594604,-16.061058,"CRUZEXT"
278,16,51,5.611,4128.7,0.673461,-0.067756,0.719726,-0.154444,-0.97716,0.12451,0.03216,4125.56,0.563174,-0.341034,0.486221,-0.574561,-0.92125,0.18856,-0.32239,2.39,2.49,2.72,3.04,3.07,2.99,2.95,3.82,3.21,3.9,4.06,3.97,3.81,3.82,3.7,3323,13.845833,60665.613833,236.21051,979.436951,-187.537445,1.2601342222611,2.39652105790721,2.22081782848975,17.713589,791.246826,137.818192,149.636307,1187.607422,-16.137777,"CRUZEXT"
279,16,51,5.631,4128.72,0.673298,-0.067786,0.71985,-0.154572,-0.97648,0.12465,0.02975,4125.58,0.562945,-0.343481,0.484922,-0.574425,-0.91753,0.17653,-0.33512,2.39,2.48,2.72,3.04,3.07,2.99,2.95,3.82,3.21,3.9,4.06,3.97,3.8,3.82,3.71,3328,13.866667,60665.634667,236.178085,979.146423,-187.562119,1.26096972296735,2.39751721211466,2.22029153330488,17.623976,791.238708,137.809448,149.780853,1187.624756,-16.185215,"CRUZEXT"
280,16,51,5.636,4128.74,0.673106,-0.067866,0.719987,-0.154729,-0.97262,0.12317,0.02703,4125.6,0.562792,-0.345476,0.483555,-0.574531,-0.94135,0.16108,-0.34286,2.39,2.48,2.72,3.03,3.08,2.99,2.95,3.82,3.21,3.9,4.06,3.97,3.8,3.82,3.7,3329,13.870833,60665.638833,236.182938,979.103271,-187.561554,1.26109490624872,2.39768098729205,2.2201975545803,17.608366,791.238892,137.801941,149.811096,1187.633301,-16.189203,"CRUZEXT"
281,16,51,5.671,4128.76,0.672884,-0.067953,0.720157,-0.154866,-0.97491,0.12416,0.02991,4125.62,0.562406,-0.347004,0.482885,-0.574552,-0.92189,0.14985,-0.33561,2.39,2.48,2.72,3.02,3.08,2.99,2.95,3.82,3.21,3.91,4.06,3.97,3.8,3.82,3.71,3337,13.904167,60665.672167,236.349976,978.944153,-187.51297,1.2614286486362,2.39814980804184,2.21991356620647,17.469362,791.275757,137.700043,150.024719,1187.669312,-16.118355,"CRUZEXT"
282,16,51,5.693,4128.78,0.672556,-0.068068,0.72041,-0.155064,-0.97327,0.12313,0.03557,4125.64,0.561899,-0.348067,0.482959,-0.574343,-0.92538,0.15405,-0.32125,2.39,2.48,2.71,3.01,3.08,2.99,2.95,3.82,3.21,3.91,4.05,3.97,3.8,3.82,3.7,3342,13.925,60665.693,236.532486,978.960083,-187.526703,1.26134294539284,2.3978226681545,2.22020041681528,17.423279,791.292725,137.624939,150.167267,1187.663086,-16.033913,"CRUZEXT"
283,16,51,5.698,4128.8,0.67226,-0.068302,0.720639,-0.155181,-0.97838,0.1201,0.03563,4125.66,0.561468,-0.348388,0.48347,-0.574139,-0.92995,0.16507,-0.31342,2.39,2.47,2.71,3,3.08,2.99,2.95,3.82,3.21,3.91,4.05,3.97,3.8,3.82,3.71,3344,13.933333,60665.701333,236.599503,978.979919,-187.545547,1.26127913809297,2.3975913971582,2.22040124213972,17.418087,791.293457,137.597656,150.210007,1187.655518,-15.993418,"CRUZEXT"
284,16,51,5.732,4128.82,0.672042,-0.068208,0.720861,-0.155135,-0.979,0.11813,0.04081,4125.68,0.560745,-0.348506,0.484198,-0.57416,-0.93738,0.17203,-0.31166,2.39,2.47,2.71,2.99,3.08,2.99,2.96,3.82,3.21,3.91,4.05,3.96,3.79,3.82,3.71,3352,13.966667,60665.734667,236.868011,979.252686,-187.761917,1.26085201249932,2.3957328446642,2.22206600060348,17.392912,791.292236,137.509155,150.355087,1187.590332,-15.818035,"CRUZEXT"
285,16,51,5.737,4128.84,0.671928,-0.068095,0.720998,-0.15504,-0.9811,0.11979,0.04007,4125.7,0.559532,-0.348507,0.485181,-0.574513,-0.93227,0.17184,-0.3012,2.39,2.48,2.71,2.98,3.08,2.99,2.96,3.81,3.2,3.91,4.05,3.97,3.79,3.82,3.71,3353,13.970833,60665.738833,236.901932,979.312317,-187.805786,1.26076636431854,2.39537651795386,2.22238276366698,17.402069,791.286011,137.507156,150.365189,1187.583008,-15.789097,"CRUZEXT"
286,16,51,5.772,4128.86,0.671849,-0.068077,0.721089,-0.154968,-0.97384,0.12469,0.04239,4125.72,0.558106,-0.348101,0.486461,-0.575065,-0.93403,0.18546,-0.29053,2.38,2.48,2.71,2.97,3.08,2.99,2.96,3.82,3.2,3.91,4.05,3.96,3.79,3.82,3.71,3361,14.004167,60665.772167,237.110458,979.86084,-188.222214,1.2603187155407,2.39215105664201,2.22544539539575,17.470425,791.285339,137.500458,150.453705,1187.507202,-15.517404,"CRUZEXT"
287,16,51,5.778,4128.88,0.671769,-0.068102,0.721167,-0.154941,-0.96866,0.12885,0.04028,4125.74,0.556417,-0.347114,0.488306,-0.575734,-0.93795,0.19341,-0.29637,2.38,2.47,2.71,2.95,3.08,2.99,2.96,3.82,3.2,3.91,4.05,3.96,3.79,3.82,3.71,3363,14.0125,60665.7805,237.155151,980.058411,-188.361664,1.26017543509529,2.39110487902494,2.22643909531204,17.496429,791.284851,137.519409,150.45871,1187.504883,-15.431376,"CRUZEXT"
288,16,51,5.811,4128.9,0.67176,-0.067991,0.721213,-0.154816,-0.9721,0.12894,0.03983,4125.76,0.554392,-0.345563,0.490538,-0.576722,-0.95508,0.18558,-0.30774,2.38,2.47,2.71,2.95,3.08,2.98,2.96,3.81,3.19,3.91,4.06,3.96,3.79,3.82,3.71,3371,14.045833,60665.813833,237.37944,981.233154,-189.038742,1.25907796900961,2.38524094658462,2.23182422817101,17.631632,791.249451,137.658722,150.402084,1187.505127,-14.931089,"CRUZEXT"
289,16,51,5.816,4128.92,0.671715,-0.067961,0.721287,-0.154675,-0.9752,0.13156,0.04086,4125.78,0.552204,-0.343367,0.492985,-0.578045,-0.95871,0.19702,-0.29827,2.38,2.47,2.71,2.94,3.08,2.98,2.97,3.81,3.19,3.91,4.05,3.96,3.79,3.82,3.71,3372,14.05,60665.818,237.408218,981.428223,-189.142136,1.25889381192708,2.38430438030176,2.23267781277405,17.653576,791.242065,137.671692,150.383682,1187.511841,-14.848526,"CRUZEXT"
