Sample,Hour,Minute,Sec,Stamp,Quat1,Quat2,Quat3,Quat4,AccX,AccY,AccZ,Stamp2,Quat2_1,Quat2_2,Quat2_3,Quat2_4,Acc2_X,Acc2_Y,Acc2_Z,A0,A1,A2,A3,A4,A5,A6,A7,A8,A9,A10,A11,A12,A13,A14,Frame,Time,realTime,BrazoX,BrazoY,BrazoZ,angBrazoX,angBrazoY,angBrazoZ,EspaldaX,EspaldaY,EspaldaZ,refX,refY,refZ,type
2,16,58,32.556,4575.12,0.607037,-0.16115,0.676617,-0.384352,-0.93026,0.31913,-0.03632,4572,0.676451,-0.223854,0.567778,-0.412226,-0.93652,0.15386,-0.26925,2.37,2.57,2.71,2.83,3.18,3.08,3.06,3.84,3.21,3.94,4,3.93,3.78,3.83,3.69,2582,10.758333,61112.559333,220.917511,960.282288,-172.592026,1.23803897890149,2.44244243343257,2.15856747580446,8.781408,793.958923,162.825928,127.585396,1178.973022,-14.155443,"CRUZEXT"
3,16,58,32.568,4575.14,0.607083,-0.161227,0.676558,-0.384352,-0.92726,0.32188,-0.03573,4572.02,0.676507,-0.22394,0.567715,-0.412176,-0.93703,0.15587,-0.27035,2.37,2.57,2.71,2.83,3.18,3.08,3.06,3.84,3.21,3.94,4,3.92,3.78,3.84,3.68,2585,10.770833,61112.571833,220.944061,960.305786,-172.587082,1.23796997830405,2.44239975484725,2.15856686510764,8.798616,793.967712,162.824997,127.594261,1178.98645,-14.152254,"CRUZEXT"
4,16,58,32.577,4575.16,0.607093,-0.161128,0.676521,-0.384442,-0.92766,0.32455,-0.03427,4572.04,0.676601,-0.22396,0.567677,-0.412063,-0.93452,0.15648,-0.26679,2.37,2.57,2.71,2.83,3.18,3.08,3.06,3.84,3.21,3.94,4,3.92,3.78,3.84,3.69,2587,10.779167,61112.580167,220.960327,960.318176,-172.585526,1.23791321707669,2.44238558958273,2.15854400058517,8.807803,793.973511,162.828079,127.592445,1179.002686,-14.151461,"CRUZEXT"
5,16,58,32.594,4575.18,0.607157,-0.161114,0.676491,-0.3844,-0.93004,0.3253,-0.03221,4572.06,0.676803,-0.223921,0.567603,-0.411855,-0.93424,0.15543,-0.26426,2.37,2.57,2.71,2.83,3.18,3.08,3.06,3.84,3.21,3.94,4,3.92,3.78,3.84,3.68,2591,10.795833,61112.596833,221.028015,960.369751,-172.564545,1.2376474199251,2.44221601199781,2.1585470788428,8.825853,793.967468,162.817657,127.587212,1179.025757,-14.127803,"CRUZEXT"
6,16,58,32.599,4575.2,0.607165,-0.160934,0.676542,-0.384372,-0.93164,0.32678,-0.03476,4572.08,0.676917,-0.223815,0.567628,-0.41169,-0.93733,0.15416,-0.26503,2.37,2.57,2.71,2.83,3.18,3.08,3.06,3.84,3.21,3.94,4,3.92,3.79,3.83,3.68,2592,10.8,61112.601,221.036926,960.3927,-172.561478,1.23758782644846,2.4421557631154,2.15857148442967,8.829682,793.967896,162.81424,127.583382,1179.029785,-14.124613,"CRUZEXT"
7,16,58,32.604,4575.22,0.607272,-0.160876,0.676464,-0.384365,-0.93236,0.32706,-0.03582,4572.1,0.677132,-0.223706,0.567576,-0.411467,-0.93963,0.15456,-0.26395,2.37,2.57,2.71,2.82,3.18,3.08,3.06,3.84,3.21,3.94,4,3.93,3.79,3.83,3.69,2593,10.804167,61112.605167,221.05101,960.401367,-172.556732,1.23755962855756,2.44211697267755,2.15859400775935,8.831894,793.965759,162.811127,127.59082,1179.029053,-14.116152,"CRUZEXT"
8,16,58,32.609,4575.24,0.607383,-0.160815,0.676372,-0.384376,-0.93075,0.32741,-0.03859,4572.12,0.677301,-0.223546,0.567569,-0.411285,-0.93867,0.15531,-0.26031,2.37,2.57,2.71,2.82,3.18,3.08,3.06,3.84,3.21,3.94,4,3.92,3.78,3.84,3.68,2594,10.808333,61112.609333,221.070297,960.417419,-172.55249,1.23744602938744,2.44204454468352,2.15859522445483,8.833632,793.963135,162.810287,127.578514,1179.033936,-14.110059,"CRUZEXT"
9,16,58,32.614,4575.26,0.607498,-0.160723,0.676238,-0.384469,-0.92976,0.32596,-0.04065,4572.14,0.677414,-0.223533,0.567513,-0.411183,-0.9401,0.15747,-0.25952,2.37,2.57,2.71,2.82,3.18,3.08,3.06,3.85,3.21,3.93,4,3.93,3.78,3.83,3.68,2596,10.816667,61112.617667,221.105225,960.450806,-172.544098,1.23726782823936,2.44191448443201,2.1586146482785,8.84599,793.957947,162.820206,127.566818,1179.039917,-14.099569,"CRUZEXT"
10,16,58,32.619,4575.28,0.607622,-0.160673,0.676137,-0.384472,-0.92991,0.32514,-0.04098,4572.16,0.677459,-0.22365,0.567485,-0.411084,-0.94102,0.15735,-0.26242,2.37,2.57,2.71,2.82,3.19,3.08,3.06,3.84,3.21,3.93,4,3.92,3.78,3.84,3.68,2597,10.820833,61112.621833,221.115479,960.463196,-172.532547,1.23721413266198,2.44186844114127,2.15862780861781,8.851998,793.955261,162.818329,127.561745,1179.045776,-14.083482,"CRUZEXT"
11,16,58,32.631,4575.3,0.6077,-0.16053,0.676113,-0.384451,-0.92957,0.32406,-0.03899,4572.18,0.677514,-0.223587,0.567486,-0.411027,-0.94003,0.15691,-0.26128,2.37,2.57,2.71,2.82,3.18,3.08,3.06,3.84,3.21,3.93,3.99,3.92,3.78,3.84,3.68,2600,10.833333,61112.634333,221.169968,960.522644,-172.51593,1.23696926840273,2.44166208281086,2.15868391477127,8.846581,793.959717,162.820679,127.552269,1179.062256,-14.057145,"CRUZEXT"
12,16,58,32.636,4575.32,0.60782,-0.16044,0.676042,-0.384423,-0.92702,0.32633,-0.03704,4572.2,0.677521,-0.223733,0.567527,-0.410879,-0.93978,0.15595,-0.26004,2.37,2.57,2.71,2.82,3.19,3.08,3.06,3.84,3.21,3.93,4,3.93,3.78,3.83,3.68,2601,10.8375,61112.6385,221.188843,960.538452,-172.506943,1.23692309310488,2.44161576098682,2.15870239394715,8.843256,793.966125,162.822205,127.558243,1179.070557,-14.043026,"CRUZEXT"
13,16,58,32.641,4575.34,0.60792,-0.160391,0.675949,-0.384449,-0.92808,0.32671,-0.03652,4572.22,0.677575,-0.223608,0.56759,-0.410772,-0.93935,0.15517,-0.25856,2.37,2.57,2.71,2.81,3.19,3.08,3.06,3.84,3.21,3.93,4,3.92,3.78,3.84,3.69,2602,10.841667,61112.642667,221.197922,960.553833,-172.497803,1.23685320830484,2.44154619751259,2.15872977580842,8.842179,793.964539,162.823349,127.551079,1179.067017,-14.031812,"CRUZEXT"
14,16,58,32.655,4575.36,0.607982,-0.16032,0.675859,-0.384539,-0.93045,0.32593,-0.03803,4572.24,0.677582,-0.223515,0.567663,-0.410709,-0.9394,0.15524,-0.25614,2.37,2.57,2.71,2.81,3.19,3.08,3.06,3.84,3.21,3.93,4,3.92,3.79,3.84,3.69,2605,10.854167,61112.655167,221.23793,960.607178,-172.480667,1.23666213006915,2.44137365761957,2.15878575187749,8.838997,793.968994,162.827682,127.538193,1179.091675,-13.999138,"CRUZEXT"
15,16,58,32.66,4575.38,0.608044,-0.160326,0.675774,-0.384589,-0.93152,0.32366,-0.03918,4572.26,0.67733,-0.223988,0.567841,-0.410621,-0.94043,0.15435,-0.25722,2.37,2.57,2.71,2.81,3.19,3.08,3.06,3.84,3.21,3.93,4,3.92,3.78,3.84,3.69,2607,10.8625,61112.6635,221.253784,960.638,-172.471237,1.23660723201647,2.44130053392911,2.15882696957364,8.838972,793.963318,162.823669,127.540497,1179.106079,-13.982053,"CRUZEXT"
16,16,58,32.665,4575.4,0.608112,-0.160275,0.6757,-0.384631,-0.93049,0.32288,-0.03957,4572.28,0.677277,-0.224,0.567926,-0.410585,-0.94254,0.1522,-0.25732,2.37,2.57,2.71,2.81,3.19,3.08,3.06,3.84,3.21,3.93,4,3.92,3.79,3.83,3.68,2608,10.866667,61112.667667,221.269913,960.657959,-172.464523,1.23653988992247,2.44123337940468,2.15885345446623,8.835081,793.964478,162.834045,127.536995,1179.117065,-13.966582,"CRUZEXT"
17,16,58,32.671,4575.42,0.608182,-0.160256,0.675639,-0.384635,-0.92753,0.32336,-0.03992,4572.3,0.677279,-0.224264,0.56793,-0.410432,-0.94235,0.15466,-0.25916,2.37,2.57,2.71,2.81,3.19,3.08,3.06,3.84,3.21,3.93,4,3.92,3.79,3.84,3.69,2609,10.870833,61112.671833,221.274292,960.668823,-172.45903,1.23652315100548,2.44121484185673,2.15886200675735,8.841063,793.9599,162.823563,127.536072,1179.126343,-13.95773,"CRUZEXT"
18,16,58,32.676,4575.44,0.60827,-0.160217,0.67559,-0.384599,-0.92759,0.32338,-0.04075,4572.32,0.677207,-0.224383,0.56799,-0.410403,-0.9413,0.15367,-0.25886,2.37,2.57,2.71,2.81,3.19,3.08,3.06,3.84,3.21,3.93,4,3.92,3.78,3.84,3.69,2610,10.875,61112.676,221.285095,960.688599,-172.449341,1.23644072478127,2.44110102502005,2.15892817216826,8.845231,793.961548,162.827515,127.52433,1179.125854,-13.931808,"CRUZEXT"
19,16,58,32.681,4575.46,0.608284,-0.160188,0.675568,-0.384628,-0.92861,0.3239,-0.0388,4572.34,0.677114,-0.22457,0.567991,-0.410452,-0.93797,0.15126,-0.2616,2.37,2.57,2.71,2.81,3.19,3.08,3.06,3.84,3.21,3.93,4,3.92,3.78,3.84,3.68,2612,10.883333,61112.684333,221.30571,960.721741,-172.433289,1.23637057436559,2.44103530402576,2.15895122391736,8.841786,793.959778,162.827957,127.528755,1179.140503,-13.914913,"CRUZEXT"
20,16,58,32.695,4575.48,0.608319,-0.160247,0.675495,-0.384675,-0.93035,0.32438,-0.03969,4572.36,0.67695,-0.224862,0.568049,-0.410482,-0.94012,0.15274,-0.25806,2.36,2.57,2.71,2.81,3.19,3.08,3.06,3.84,3.21,3.93,4,3.92,3.78,3.84,3.69,2615,10.895833,61112.696833,221.331421,960.764771,-172.409012,1.23628881467615,2.44092101297081,2.15901832456463,8.84246,793.960571,162.831192,127.535759,1179.154663,-13.880362,"CRUZEXT"
21,16,58,32.7,4575.5,0.608304,-0.160307,0.675442,-0.384768,-0.93066,0.32567,-0.03885,4572.38,0.676844,-0.224911,0.568115,-0.410539,-0.94099,0.14919,-0.2609,2.36,2.57,2.71,2.81,3.19,3.08,3.06,3.84,3.21,3.92,4,3.92,3.79,3.84,3.69,2616,10.9,61112.701,221.341827,960.785095,-172.402985,1.23627081903624,2.44087241164881,2.15905812286663,8.837885,793.966919,162.836075,127.541107,1179.166504,-13.864535,"CRUZEXT"
22,16,58,32.706,4575.52,0.608308,-0.160412,0.675368,-0.384849,-0.92857,0.32549,-0.04004,4572.4,0.676781,-0.225084,0.568129,-0.41053,-0.94104,0.15724,-0.26179,2.36,2.57,2.71,2.81,3.19,3.08,3.06,3.84,3.21,3.92,3.99,3.92,3.79,3.83,3.69,2618,10.908333,61112.709333,221.358444,960.816528,-172.384628,1.23620332940217,2.4407705704993,2.15912150682404,8.829683,793.966919,162.842194,127.538872,1179.180664,-13.830033,"CRUZEXT"
23,16,58,32.714,4575.54,0.608293,-0.160555,0.675295,-0.384939,-0.92787,0.32513,-0.03997,4572.42,0.676656,-0.225276,0.568119,-0.410645,-0.93604,0.15615,-0.25973,2.35,2.57,2.71,2.81,3.19,3.08,3.06,3.84,3.21,3.92,3.99,3.92,3.78,3.84,3.69,2620,10.916667,61112.717667,221.367996,960.838074,-172.364243,1.23617293589656,2.44071986869332,2.15915521425744,8.818528,793.970764,162.852966,127.541008,1179.19104,-13.802965,"CRUZEXT"
24,16,58,32.719,4575.56,0.608273,-0.160672,0.675219,-0.385056,-0.92997,0.32547,-0.03953,4572.44,0.676541,-0.225403,0.56815,-0.410721,-0.93255,0.15318,-0.25684,2.35,2.57,2.71,2.81,3.19,3.08,3.06,3.84,3.21,3.92,4,3.92,3.78,3.84,3.68,2621,10.920833,61112.721833,221.379913,960.854126,-172.35611,1.23613094292038,2.44069871312249,2.1591495830565,8.822531,793.972351,162.854904,127.542305,1179.201538,-13.797373,"CRUZEXT"
25,16,58,32.725,4575.58,0.608249,-0.160828,0.675137,-0.385172,-0.92977,0.32441,-0.04161,4572.46,0.676532,-0.225672,0.56817,-0.41056,-0.93448,0.15043,-0.25903,2.34,2.57,2.71,2.81,3.19,3.08,3.06,3.84,3.21,3.92,4,3.92,3.78,3.83,3.68,2622,10.925,61112.726,221.381653,960.865601,-172.347885,1.2361220706777,2.44066279184775,2.15918196996806,8.81493,793.976807,162.862122,127.542374,1179.204712,-13.782673,"CRUZEXT"
26,16,58,32.733,4575.6,0.608191,-0.160986,0.675048,-0.385355,-0.93066,0.32384,-0.0433,4572.48,0.676421,-0.225844,0.568217,-0.410582,-0.9398,0.15435,-0.26231,2.34,2.56,2.71,2.81,3.19,3.08,3.06,3.84,3.21,3.92,4,3.92,3.79,3.84,3.69,2624,10.933333,61112.734333,221.385223,960.889038,-172.332382,1.23612357544548,2.44060346853491,2.15924631186927,8.813358,793.974243,162.867264,127.546951,1179.21582,-13.752895,"CRUZEXT"
27,16,58,32.739,4575.62,0.608101,-0.161205,0.674971,-0.385539,-0.92984,0.325,-0.04109,4572.5,0.676399,-0.226091,0.568104,-0.410639,-0.94039,0.15465,-0.2654,2.34,2.56,2.71,2.81,3.19,3.08,3.06,3.84,3.21,3.92,4,3.92,3.79,3.83,3.69,2626,10.941667,61112.742667,221.390717,960.904541,-172.323242,1.23609843222444,2.44057144170232,2.15926360671335,8.815399,793.976013,162.872208,127.542389,1179.233032,-13.734117,"CRUZEXT"
28,16,58,32.744,4575.64,0.608036,-0.161413,0.674872,-0.385729,-0.92622,0.32387,-0.04389,4572.52,0.676321,-0.226298,0.568032,-0.410754,-0.94069,0.15482,-0.26644,2.33,2.56,2.71,2.81,3.19,3.08,3.06,3.84,3.21,3.92,3.99,3.93,3.79,3.84,3.69,2627,10.945833,61112.746833,221.386398,960.91626,-172.317551,1.23613695037657,2.44056129976803,2.15930031447003,8.813552,793.975342,162.877762,127.553642,1179.230835,-13.728454,"CRUZEXT"
29,16,58,32.755,4575.66,0.608003,-0.161562,0.674786,-0.385867,-0.92695,0.32113,-0.04307,4572.54,0.676304,-0.226321,0.568016,-0.410792,-0.93731,0.15264,-0.26554,2.33,2.56,2.71,2.81,3.19,3.08,3.06,3.84,3.21,3.92,3.99,3.92,3.79,3.84,3.69,2629,10.954167,61112.755167,221.388519,960.92981,-172.301971,1.23610948691887,2.44051696857018,2.15932918547636,8.811214,793.97522,162.879425,127.548042,1179.236938,-13.705489,"CRUZEXT"
30,16,58,32.761,4575.68,0.60798,-0.16165,0.674743,-0.385941,-0.93127,0.32159,-0.04177,4572.56,0.676479,-0.226153,0.567951,-0.410686,-0.939,0.15388,-0.26465,2.33,2.56,2.71,2.81,3.19,3.08,3.06,3.84,3.21,3.92,3.99,3.92,3.79,3.84,3.69,2631,10.9625,61112.7635,221.384155,960.943298,-172.291016,1.23611729454608,2.44047593699334,2.15937823165067,8.811967,793.968201,162.886902,127.544449,1179.245972,-13.680622,"CRUZEXT"
31,16,58,32.766,4575.7,0.607915,-0.16155,0.674734,-0.386102,-0.93325,0.32448,-0.03978,4572.58,0.676482,-0.225928,0.568038,-0.410684,-0.94081,0.15552,-0.26397,2.33,2.56,2.71,2.81,3.19,3.08,3.06,3.84,3.21,3.92,4,3.92,3.79,3.84,3.69,2632,10.966667,61112.767667,221.383453,960.950439,-172.28688,1.23614514167101,2.44046590054191,2.15940765373471,8.811985,793.971008,162.891159,127.554428,1179.243896,-13.674848,"CRUZEXT"
32,16,58,32.775,4575.72,0.607903,-0.161605,0.674687,-0.386181,-0.9295,0.32638,-0.04297,4572.6,0.676502,-0.225658,0.568116,-0.410692,-0.94135,0.15581,-0.26081,2.33,2.55,2.71,2.81,3.19,3.08,3.06,3.84,3.21,3.92,4,3.93,3.78,3.84,3.69,2634,10.975,61112.776,221.379379,960.96759,-172.268616,1.23614580981839,2.44043409429755,2.1594420536131,8.818187,793.958374,162.902466,127.548828,1179.259155,-13.645526,"CRUZEXT"
33,16,58,32.78,4575.74,0.607887,-0.161681,0.67463,-0.386273,-0.93047,0.32377,-0.04023,4572.62,0.6765,-0.225349,0.568212,-0.410732,-0.93773,0.15492,-0.25957,2.32,2.55,2.71,2.8,3.19,3.08,3.06,3.84,3.21,3.92,3.99,3.93,3.79,3.83,3.69,2635,10.979167,61112.780167,221.379745,960.976929,-172.263336,1.23614009227443,2.44042008408824,2.15945316745015,8.814797,793.960083,162.907059,127.549034,1179.262695,-13.639943,"CRUZEXT"
34,16,58,32.785,4575.76,0.607866,-0.161775,0.674558,-0.386394,-0.92869,0.3222,-0.04367,4572.64,0.676464,-0.225131,0.568303,-0.410785,-0.93902,0.15301,-0.259,2.32,2.55,2.71,2.81,3.19,3.08,3.06,3.84,3.21,3.92,4,3.93,3.79,3.84,3.69,2637,10.9875,61112.7885,221.377365,960.993958,-172.245972,1.23612879272197,2.44038451413651,2.15948354433674,8.812393,793.966553,162.920502,127.544014,1179.272217,-13.616053,"CRUZEXT"
35,16,58,32.795,4575.78,0.607822,-0.161846,0.674539,-0.386465,-0.9278,0.32244,-0.04082,4572.66,0.676459,-0.225199,0.568326,-0.410724,-0.93949,0.1505,-0.25975,2.32,2.55,2.71,2.8,3.18,3.08,3.06,3.84,3.21,3.92,4,3.93,3.78,3.84,3.68,2639,10.995833,61112.796833,221.370529,961.013489,-172.231308,1.23615234455841,2.44033831208972,2.15954868058623,8.813202,793.967529,162.929153,127.542496,1179.285645,-13.58416,"CRUZEXT"
36,16,58,32.799,4575.8,0.607799,-0.161787,0.67446,-0.386663,-0.92615,0.32214,-0.04178,4572.68,0.676414,-0.22509,0.568415,-0.410735,-0.93604,0.15227,-0.26013,2.31,2.55,2.71,2.8,3.18,3.08,3.07,3.84,3.21,3.92,4,3.93,3.79,3.84,3.69,2640,11,61112.801,221.373337,961.028137,-172.223282,1.2361349147077,2.44031766644151,2.15955900894683,8.808748,793.973572,162.934799,127.542061,1179.293091,-13.576149,"CRUZEXT"
37,16,58,32.809,4575.82,0.607762,-0.161857,0.674474,-0.386669,-0.92772,0.3245,-0.04396,4572.7,0.67637,-0.225413,0.568412,-0.410634,-0.93623,0.15431,-0.25785,2.31,2.55,2.7,2.8,3.19,3.08,3.07,3.84,3.21,3.91,4,3.93,3.79,3.84,3.69,2642,11.008333,61112.809333,221.367828,961.048645,-172.208801,1.23615738157428,2.44027910778317,2.15961525529248,8.815915,793.97052,162.941925,127.542183,1179.307495,-13.547576,"CRUZEXT"
38,16,58,32.814,4575.84,0.60774,-0.161946,0.674459,-0.386693,-0.92977,0.32523,-0.04379,4572.72,0.676352,-0.225375,0.568451,-0.410631,-0.93624,0.15194,-0.25793,2.31,2.55,2.7,2.8,3.19,3.08,3.07,3.84,3.21,3.92,4,3.92,3.79,3.84,3.69,2644,11.016667,61112.817667,221.368134,961.082214,-172.198608,1.23610600581097,2.44018176538842,2.15968464150868,8.8168,793.967773,162.956329,127.529991,1179.319946,-13.523207,"CRUZEXT"
39,16,58,32.821,4575.86,0.607728,-0.161937,0.674434,-0.386758,-0.92977,0.32509,-0.04313,4572.74,0.676315,-0.22539,0.568468,-0.41066,-0.93597,0.15672,-0.25689,2.31,2.55,2.7,2.8,3.18,3.08,3.07,3.84,3.21,3.91,4,3.93,3.78,3.84,3.69,2645,11.020833,61112.821833,221.370987,961.097778,-172.197449,1.2360839140063,2.44012677869827,2.15972848875122,8.811764,793.974609,162.962067,127.527222,1179.324585,-13.512205,"CRUZEXT"
40,16,58,32.833,4575.88,0.60773,-0.161977,0.67445,-0.386711,-0.92923,0.32446,-0.04262,4572.76,0.676317,-0.225479,0.568421,-0.410673,-0.93895,0.15709,-0.26043,2.31,2.54,2.7,2.8,3.18,3.08,3.06,3.84,3.21,3.92,4,3.93,3.79,3.84,3.69,2648,11.033333,61112.834333,221.36412,961.137146,-172.189224,1.23605206760644,2.44003407960148,2.15980603083439,8.818064,793.975647,162.987396,127.508743,1179.353882,-13.480455,"CRUZEXT"
41,16,58,32.838,4575.9,0.607693,-0.161852,0.674455,-0.386811,-0.93004,0.32445,-0.041,4572.78,0.676271,-0.225491,0.568423,-0.41074,-0.94169,0.15712,-0.25987,2.31,2.54,2.7,2.8,3.19,3.08,3.07,3.84,3.21,3.91,4,3.93,3.79,3.84,3.69,2649,11.0375,61112.8385,221.356293,961.155273,-172.183823,1.2360680142105,2.43999084019336,2.15986288863376,8.811999,793.976563,162.99472,127.505806,1179.362671,-13.462541,"CRUZEXT"
42,16,58,32.844,4575.92,0.607657,-0.161919,0.674467,-0.386818,-0.93045,0.32513,-0.04234,4572.8,0.676219,-0.225501,0.568465,-0.410761,-0.94017,0.15846,-0.25731,2.31,2.54,2.7,2.8,3.19,3.08,3.06,3.84,3.21,3.92,4,3.92,3.79,3.84,3.69,2651,11.045833,61112.846833,221.356583,961.185852,-172.180176,1.23603800386899,2.43990674593097,2.1599324761488,8.814335,793.977783,163.012009,127.496658,1179.380859,-13.440098,"CRUZEXT"
43,16,58,32.872,4575.94,0.607613,-0.162025,0.674468,-0.386842,-0.92873,0.32385,-0.04126,4572.82,0.676146,-0.225503,0.568499,-0.410834,-0.93883,0.15979,-0.2582,2.31,2.54,2.7,2.8,3.18,3.08,3.07,3.84,3.21,3.92,4,3.92,3.79,3.84,3.69,2658,11.075,61112.876,221.372299,961.339417,-172.171173,1.2358708006973,2.43948411820733,2.16027114801977,8.832025,793.980835,163.040115,127.472061,1179.445313,-13.358782,"CRUZEXT"
44,16,58,32.879,4575.96,0.607524,-0.162043,0.674552,-0.386829,-0.92761,0.32511,-0.03859,4572.84,0.676041,-0.225479,0.568554,-0.410944,-0.94174,0.15913,-0.26027,2.31,2.54,2.7,2.8,3.18,3.08,3.07,3.84,3.21,3.91,4,3.92,3.78,3.84,3.69,2659,11.079167,61112.880167,221.37674,961.360962,-172.170792,1.23585987938902,2.43942016661301,2.1603320487927,8.842339,793.978333,163.044342,127.475334,1179.450928,-13.346948,"CRUZEXT"
45,16,58,32.907,4575.98,0.607511,-0.16213,0.674532,-0.386847,-0.92899,0.32504,-0.04276,4572.86,0.675999,-0.225423,0.568615,-0.410959,-0.93975,0.15637,-0.25984,2.3,2.54,2.7,2.8,3.19,3.08,3.07,3.84,3.21,3.92,4,3.92,3.79,3.84,3.69,2666,11.108333,61112.909333,221.398041,961.518433,-172.16391,1.23563567201126,2.43898920367449,2.16064122219995,8.859996,793.997803,163.079224,127.444221,1179.510132,-13.280314,"CRUZEXT"
46,16,58,32.93,4576,0.607475,-0.162201,0.674508,-0.386917,-0.93215,0.32403,-0.04044,4572.88,0.675944,-0.225305,0.568716,-0.410975,-0.93773,0.15508,-0.25943,2.31,2.54,2.7,2.8,3.19,3.08,3.07,3.84,3.21,3.92,4,3.93,3.78,3.84,3.69,2671,11.129167,61112.930167,221.398117,961.60321,-172.17189,1.23553718122807,2.4387935097979,2.16078381122255,8.877295,794.006958,163.103348,127.416969,1179.560547,-13.253162,"CRUZEXT"
47,16,58,32.936,4576.02,0.607407,-0.162356,0.674483,-0.387002,-0.92962,0.32472,-0.04138,4572.9,0.675935,-0.225391,0.568708,-0.410953,-0.93647,0.15674,-0.25804,2.31,2.54,2.7,2.8,3.18,3.08,3.07,3.84,3.21,3.91,4,3.92,3.79,3.84,3.69,2673,11.1375,61112.9385,221.405075,961.639526,-172.177063,1.23548693587066,2.43871705623949,2.16083160369007,8.894439,794.010132,163.109787,127.410156,1179.583252,-13.246623,"CRUZEXT"
48,16,58,32.974,4576.04,0.607329,-0.162517,0.674458,-0.3871,-0.92941,0.32499,-0.04135,4572.92,0.675899,-0.225352,0.568719,-0.411018,-0.93567,0.1574,-0.25677,2.31,2.54,2.7,2.8,3.18,3.08,3.07,3.85,3.21,3.92,4,3.92,3.79,3.84,3.69,2682,11.175,61112.976,221.423904,961.779053,-172.200745,1.23533244291675,2.43842880461711,2.16103525297869,8.929455,794.033508,163.120621,127.395317,1179.651001,-13.235503,"CRUZEXT"
49,16,58,32.979,4576.06,0.607199,-0.16265,0.674497,-0.38718,-0.9299,0.32319,-0.03969,4572.94,0.675865,-0.22533,0.568744,-0.411051,-0.93778,0.15747,-0.25687,2.31,2.54,2.71,2.8,3.18,3.08,3.06,3.84,3.21,3.92,4,3.93,3.78,3.84,3.69,2683,11.179167,61112.980167,221.425339,961.792175,-172.203003,1.23531534546865,2.43841079413943,2.1610429709992,8.925247,794.039307,163.120224,127.391785,1179.661621,-13.235328,"CRUZEXT"
50,16,58,33.03,4576.08,0.607095,-0.162823,0.674491,-0.38728,-0.93033,0.32176,-0.04161,4572.96,0.675865,-0.225383,0.568765,-0.410993,-0.93776,0.15723,-0.25921,2.31,2.54,2.7,2.8,3.19,3.08,3.06,3.84,3.21,3.92,4,3.92,3.78,3.84,3.69,2695,11.229167,61113.030167,221.485001,961.991516,-172.304306,1.23505561256626,2.43800429435827,2.16130192502468,8.964566,794.105896,163.113251,127.388405,1179.769653,-13.287025,"CRUZEXT"
51,16,58,33.035,4576.1,0.606986,-0.162956,0.674485,-0.387406,-0.92997,0.32422,-0.03859,4572.98,0.675862,-0.225337,0.568806,-0.410968,-0.93797,0.15841,-0.25968,2.31,2.54,2.7,2.8,3.18,3.08,3.06,3.84,3.21,3.92,4,3.92,3.78,3.84,3.69,2697,11.2375,61113.0385,221.495483,962.026367,-172.331207,1.23501011571965,2.43789620048913,2.16138661996748,8.970668,794.11377,163.106522,127.387878,1179.781616,-13.295962,"CRUZEXT"
52,16,58,33.051,4576.12,0.606886,-0.163128,0.674456,-0.38754,-0.93124,0.32338,-0.03891,4573,0.675808,-0.225379,0.568872,-0.410942,-0.93616,0.16084,-0.25586,2.31,2.54,2.7,2.8,3.18,3.08,3.07,3.85,3.21,3.92,4,3.93,3.78,3.84,3.69,2700,11.25,61113.051,221.527527,962.082336,-172.36705,1.23494150170779,2.43776894932849,2.16147619207981,8.978381,794.138794,163.097702,127.405212,1179.805298,-13.316964,"CRUZEXT"
53,16,58,33.057,4576.14,0.606782,-0.163271,0.674443,-0.387666,-0.92997,0.32309,-0.04095,4573.02,0.675769,-0.22537,0.568937,-0.410921,-0.93809,0.16017,-0.25755,2.31,2.54,2.71,2.8,3.19,3.08,3.07,3.85,3.21,3.92,4,3.93,3.78,3.84,3.69,2702,11.258333,61113.059333,221.546402,962.115234,-172.38768,1.23486606152217,2.4376714190257,2.16152946375495,8.989704,794.150818,163.094482,127.40284,1179.822266,-13.323427,"CRUZEXT"
54,16,58,33.109,4576.16,0.606659,-0.163438,0.674466,-0.387749,-0.93072,0.3226,-0.03911,4573.04,0.675759,-0.225289,0.569011,-0.410879,-0.93989,0.16017,-0.25853,2.31,2.54,2.7,2.8,3.19,3.08,3.07,3.85,3.21,3.92,4,3.93,3.79,3.84,3.69,2714,11.308333,61113.109333,221.665192,962.362793,-172.602509,1.23447479324296,2.43702076583794,2.16196005752363,9.049874,794.24054,163.049927,127.419548,1179.94165,-13.441891,"CRUZEXT"
55,16,58,33.114,4576.18,0.606564,-0.1636,0.674437,-0.387879,-0.93199,0.32338,-0.04126,4573.06,0.675749,-0.22524,0.569096,-0.410803,-0.94146,0.16187,-0.25818,2.31,2.54,2.71,2.8,3.19,3.08,3.07,3.85,3.21,3.92,4,3.92,3.79,3.84,3.7,2716,11.316667,61113.117667,221.688202,962.416138,-172.636017,1.23441389396399,2.43692598132153,2.16202013631273,9.064679,794.253418,163.043015,127.428276,1179.972534,-13.464759,"CRUZEXT"
56,16,58,33.131,4576.2,0.606468,-0.163689,0.674407,-0.388044,-0.93216,0.3211,-0.03943,4573.08,0.675711,-0.225209,0.569222,-0.41071,-0.93947,0.15909,-0.25851,2.31,2.54,2.71,2.8,3.19,3.08,3.06,3.85,3.21,3.92,4,3.93,3.79,3.84,3.69,2720,11.333333,61113.134333,221.742203,962.511719,-172.706207,1.23425570923059,2.43669760786671,2.16215715081248,9.096118,794.29248,163.034195,127.443123,1180.017822,-13.50835,"CRUZEXT"
57,16,58,33.137,4576.22,0.606387,-0.163845,0.674362,-0.388182,-0.92993,0.32448,-0.03936,4573.1,0.67587,-0.225163,0.569221,-0.410473,-0.9393,0.15519,-0.26161,2.31,2.54,2.71,2.8,3.19,3.08,3.07,3.85,3.21,3.92,4,3.93,3.78,3.84,3.69,2721,11.3375,61113.1385,221.756088,962.529358,-172.716293,1.2341792179101,2.43665707709474,2.16214885133705,9.113838,794.296204,163.037003,127.4347,1180.03186,-13.51755,"CRUZEXT"
58,16,58,33.188,4576.24,0.606319,-0.163954,0.674316,-0.388322,-0.93004,0.3207,-0.04009,4573.12,0.675925,-0.225059,0.569259,-0.410388,-0.9393,0.15791,-0.2661,2.31,2.54,2.71,2.8,3.19,3.08,3.06,3.85,3.21,3.92,4,3.93,3.78,3.84,3.69,2733,11.3875,61113.1885,221.946808,962.767456,-172.842834,1.23340230088403,2.43616258725014,2.16215235875094,9.242432,794.399536,163.015732,127.437996,1180.12793,-13.680238,"CRUZEXT"
59,16,58,33.193,4576.26,0.606239,-0.164081,0.674275,-0.388465,-0.93185,0.32279,-0.03948,4573.14,0.676008,-0.224882,0.569279,-0.41032,-0.93977,0.15702,-0.26207,2.31,2.55,2.71,2.8,3.19,3.08,3.06,3.85,3.21,3.92,4,3.93,3.78,3.84,3.69,2735,11.395833,61113.196833,221.977432,962.804504,-172.864014,1.23326088708482,2.4360704049761,2.16215521713958,9.26761,794.412537,163.011002,127.435181,1180.137207,-13.708581,"CRUZEXT"
60,16,58,33.211,4576.28,0.606186,-0.164218,0.674184,-0.388648,-0.93042,0.3231,-0.03995,4573.16,0.676157,-0.22481,0.569188,-0.410241,-0.93607,0.15435,-0.2579,2.32,2.55,2.71,2.8,3.18,3.08,3.07,3.85,3.21,3.92,4,3.93,3.78,3.84,3.69,2739,11.4125,61113.2135,222.056015,962.871582,-172.900589,1.23294807455366,2.4359325070997,2.1620910171517,9.322986,794.442627,162.992386,127.43856,1180.157959,-13.775602,"CRUZEXT"
61,16,58,33.216,4576.3,0.606078,-0.164278,0.674157,-0.388839,-0.92995,0.3272,-0.03967,4573.18,0.676273,-0.224552,0.569221,-0.410145,-0.93539,0.15494,-0.25764,2.32,2.55,2.71,2.8,3.19,3.08,3.07,3.85,3.21,3.92,4,3.92,3.78,3.84,3.69,2740,11.416667,61113.217667,222.079361,962.889099,-172.904755,1.23288191062553,2.43591324413062,2.16206685235936,9.335213,794.451111,162.993561,127.446335,1180.166748,-13.789275,"CRUZEXT"
62,16,58,33.267,4576.32,0.606018,-0.164421,0.674086,-0.388994,-0.92998,0.32739,-0.03955,4573.2,0.676414,-0.224127,0.569351,-0.409964,-0.93555,0.15984,-0.25928,2.32,2.55,2.71,2.8,3.19,3.08,3.07,3.85,3.21,3.92,4,3.93,3.79,3.84,3.7,2752,11.466667,61113.267667,222.301071,963.070251,-173.058533,1.23231921462942,2.43550818680768,2.16211839537297,9.500686,794.583008,162.969177,127.538071,1180.223511,-13.967017,"CRUZEXT"
63,16,58,33.272,4576.34,0.60594,-0.164574,0.674011,-0.389181,-0.93018,0.32649,-0.03983,4573.22,0.676527,-0.223896,0.569364,-0.409886,-0.939,0.16319,-0.25738,2.32,2.55,2.71,2.8,3.19,3.08,3.07,3.85,3.21,3.92,4,3.93,3.78,3.84,3.7,2754,11.475,61113.276,222.343857,963.092041,-173.091461,1.23224501875925,2.43547513614828,2.16210343615247,9.523499,794.597412,162.969543,127.563568,1180.233032,-14.007994,"CRUZEXT"
64,16,58,33.291,4576.36,0.605834,-0.164717,0.673992,-0.389318,-0.92993,0.32434,-0.04067,4573.24,0.676582,-0.223838,0.569259,-0.409973,-0.9334,0.15935,-0.25563,2.32,2.55,2.71,2.8,3.19,3.08,3.07,3.85,3.21,3.92,4,3.92,3.78,3.84,3.7,2758,11.491667,61113.292667,222.439972,963.13269,-173.173203,1.23217754942044,2.43549214412376,2.16203961612725,9.586058,794.646851,162.944321,127.642097,1180.275513,-14.105822,"CRUZEXT"
65,16,58,33.296,4576.38,0.605753,-0.164857,0.673929,-0.389494,-0.92833,0.32434,-0.04025,4573.26,0.676621,-0.223852,0.569213,-0.409964,-0.93094,0.15628,-0.25584,2.32,2.55,2.71,2.8,3.19,3.08,3.07,3.85,3.21,3.92,4,3.93,3.78,3.84,3.7,2759,11.495833,61113.296833,222.463303,963.13562,-173.190033,1.23214098041852,2.4354756982451,2.16203240179265,9.598885,794.665039,162.945419,127.656174,1180.274048,-14.12535,"CRUZEXT"
66,16,58,33.349,4576.4,0.605633,-0.165015,0.673907,-0.389652,-0.92948,0.32342,-0.03901,4573.28,0.676695,-0.223697,0.569244,-0.409884,-0.93633,0.15826,-0.25595,2.32,2.55,2.71,2.8,3.19,3.08,3.06,3.85,3.21,3.92,3.99,3.92,3.78,3.84,3.7,2772,11.55,61113.351,222.748016,963.255798,-173.485046,1.23192924143258,2.43530704987146,2.16206892626357,9.808271,794.867981,162.877457,127.875343,1180.382568,-14.397367,"CRUZEXT"
67,16,58,33.355,4576.42,0.605568,-0.165143,0.673834,-0.389824,-0.93105,0.32506,-0.04122,4573.3,0.676702,-0.223788,0.569206,-0.409875,-0.93905,0.16024,-0.2571,2.32,2.55,2.71,2.8,3.19,3.08,3.06,3.85,3.21,3.92,4,3.92,3.79,3.84,3.7,2773,11.554167,61113.355167,222.761185,963.268738,-173.515579,1.23192441365772,2.43528636237465,2.16208772742281,9.833709,794.881775,162.866425,127.886925,1180.392334,-14.422963,"CRUZEXT"
68,16,58,33.371,4576.44,0.605492,-0.165304,0.673758,-0.390006,-0.9308,0.326,-0.03884,4573.32,0.676659,-0.223915,0.569107,-0.410014,-0.94223,0.15911,-0.26107,2.32,2.55,2.71,2.8,3.19,3.08,3.07,3.85,3.21,3.92,4,3.93,3.79,3.84,3.7,2777,11.570833,61113.371833,222.846497,963.313965,-173.610321,1.23187063255678,2.43527851858176,2.16205965936509,9.908735,794.941284,162.835403,127.955872,1180.44043,-14.521189,"CRUZEXT"
69,16,58,33.376,4576.46,0.6054,-0.165386,0.67369,-0.39023,-0.92782,0.32607,-0.04285,4573.34,0.676634,-0.22398,0.569002,-0.410167,-0.94083,0.15946,-0.26217,2.32,2.55,2.71,2.8,3.19,3.08,3.07,3.85,3.21,3.92,4,3.92,3.79,3.84,3.7,2778,11.575,61113.376,222.867538,963.324463,-173.629211,1.23185577711353,2.43529191136217,2.1620353043833,9.934585,794.959839,162.828888,127.973305,1180.452515,-14.546505,"CRUZEXT"
70,16,58,33.428,4576.48,0.605356,-0.16549,0.673614,-0.390387,-0.92773,0.32513,-0.04098,4573.36,0.676702,-0.224106,0.568867,-0.410172,-0.93924,0.15557,-0.26205,2.32,2.55,2.71,2.8,3.19,3.08,3.06,3.85,3.21,3.92,4,3.93,3.78,3.84,3.7,2791,11.629167,61113.430167,223.19223,963.504517,-173.8591,1.23124816628008,2.4349862666378,2.16194940184632,10.191683,795.08075,162.737946,128.139175,1180.565186,-14.804632,"CRUZEXT"
71,16,58,33.434,4576.5,0.605348,-0.165543,0.67356,-0.39047,-0.93318,0.32575,-0.04199,4573.38,0.676709,-0.224067,0.568838,-0.410222,-0.93844,0.15644,-0.26306,2.32,2.55,2.71,2.8,3.19,3.08,3.06,3.85,3.21,3.92,4,3.92,3.79,3.84,3.7,2792,11.633333,61113.434333,223.21759,963.516113,-173.875488,1.23119090877329,2.43496791597455,2.16193012300142,10.211514,795.098022,162.733917,128.146515,1180.579346,-14.821218,"CRUZEXT"
72,16,58,33.45,4576.52,0.605338,-0.165576,0.673499,-0.390576,-0.93311,0.32532,-0.03891,4573.4,0.676839,-0.22394,0.568732,-0.410225,-0.9345,0.15458,-0.26355,2.32,2.55,2.71,2.8,3.19,3.08,3.07,3.85,3.21,3.92,4,3.92,3.78,3.84,3.69,2796,11.65,61113.451,223.307816,963.557007,-173.942383,1.23099785421486,2.43489028829207,2.16188189276287,10.284401,795.128174,162.711899,128.188385,1180.597656,-14.90555,"CRUZEXT"
73,16,58,33.47,4576.54,0.605323,-0.165626,0.673443,-0.390676,-0.93098,0.32694,-0.04011,4573.42,0.676893,-0.223794,0.568657,-0.410317,-0.9367,0.15805,-0.25999,2.32,2.55,2.71,2.8,3.19,3.08,3.06,3.85,3.21,3.92,4,3.93,3.79,3.84,3.7,2801,11.670833,61113.471833,223.416641,963.604309,-174.02504,1.23077798956712,2.43476405305447,2.16186726096884,10.364972,795.160645,162.688904,128.24115,1180.614502,-14.996849,"CRUZEXT"
74,16,58,33.475,4576.56,0.605272,-0.165728,0.673441,-0.390715,-0.93145,0.32403,-0.03934,4573.44,0.676902,-0.223719,0.568606,-0.410416,-0.93403,0.15531,-0.25954,2.32,2.55,2.71,2.8,3.19,3.08,3.06,3.85,3.21,3.92,4,3.92,3.78,3.84,3.7,2802,11.675,61113.476,223.435318,963.608032,-174.038284,1.23076202044057,2.43476984865736,2.16185022412832,10.38105,795.172424,162.677719,128.2556,1180.619141,-15.014246,"CRUZEXT"
75,16,58,33.507,4576.58,0.605232,-0.165803,0.673398,-0.390818,-0.92875,0.32528,-0.04156,4573.46,0.676958,-0.22376,0.568476,-0.410481,-0.93412,0.15573,-0.26118,2.32,2.55,2.71,2.8,3.19,3.08,3.06,3.85,3.21,3.93,4,3.92,3.79,3.84,3.7,2810,11.708333,61113.509333,223.607193,963.636108,-174.146637,1.23062347501103,2.43471312732143,2.16181659970941,10.490692,795.255127,162.647812,128.385803,1180.646729,-15.123221,"CRUZEXT"
76,16,58,33.533,4576.6,0.605133,-0.165722,0.673404,-0.390995,-0.92613,0.32574,-0.04007,4573.48,0.67692,-0.223839,0.568408,-0.410594,-0.93185,0.15531,-0.25957,2.32,2.55,2.71,2.8,3.19,3.08,3.07,3.85,3.21,3.93,4,3.93,3.79,3.84,3.7,2816,11.733333,61113.534333,223.710098,963.637878,-174.226456,1.23066387408723,2.43471068540486,2.16184666706784,10.582183,795.300049,162.615601,128.496567,1180.654907,-15.190887,"CRUZEXT"
77,16,58,33.538,4576.62,0.605082,-0.165772,0.673391,-0.391076,-0.92454,0.32556,-0.04114,4573.5,0.676897,-0.224086,0.568247,-0.410721,-0.93328,0.15189,-0.26182,2.32,2.55,2.71,2.8,3.19,3.08,3.06,3.85,3.21,3.92,4,3.92,3.79,3.84,3.7,2817,11.7375,61113.5385,223.727158,963.632324,-174.240662,1.23065976645713,2.43470892051846,2.16184575877569,10.599748,795.302795,162.610413,128.509888,1180.655029,-15.200909,"CRUZEXT"
78,16,58,33.585,4576.64,0.605022,-0.16583,0.673374,-0.391173,-0.92841,0.32593,-0.04321,4573.52,0.676853,-0.22426,0.568087,-0.410919,-0.93649,0.15264,-0.26079,2.32,2.55,2.71,2.8,3.19,3.08,3.07,3.85,3.21,3.93,3.99,3.92,3.79,3.84,3.7,2829,11.7875,61113.5885,223.906921,963.540527,-174.358093,1.23090366748142,2.43498373107037,2.16171818750024,10.752705,795.374817,162.569519,128.753738,1180.617676,-15.346002,"CRUZEXT"
79,16,58,33.59,4576.66,0.604949,-0.165879,0.673324,-0.391352,-0.92814,0.32638,-0.0447,4573.54,0.67683,-0.224391,0.567976,-0.411039,-0.9342,0.15243,-0.25809,2.32,2.55,2.71,2.8,3.19,3.08,3.06,3.85,3.21,3.93,4,3.92,3.79,3.84,3.7,2830,11.791667,61113.592667,223.921463,963.527222,-174.363831,1.23094675663601,2.43505975324431,2.16166631836256,10.767406,795.378296,162.567947,128.781555,1180.614624,-15.366842,"CRUZEXT"
80,16,58,33.61,4576.68,0.604923,-0.165934,0.673274,-0.391454,-0.9244,0.32462,-0.04466,4573.56,0.676812,-0.224608,0.567863,-0.411107,-0.93263,0.15608,-0.26121,2.33,2.55,2.71,2.8,3.19,3.08,3.07,3.85,3.21,3.93,4,3.93,3.79,3.84,3.7,2835,11.8125,61113.6135,223.996857,963.475098,-174.41391,1.23106198374942,2.43522781455254,2.16156520406163,10.846774,795.400879,162.532242,128.88443,1180.601685,-15.434995,"CRUZEXT"
81,16,58,33.629,4576.7,0.604902,-0.165887,0.673264,-0.391524,-0.93101,0.32762,-0.04402,4573.58,0.676782,-0.22479,0.567755,-0.411204,-0.93935,0.15808,-0.2628,2.33,2.55,2.71,2.8,3.19,3.08,3.06,3.85,3.21,3.93,4,3.93,3.79,3.84,3.7,2839,11.829167,61113.630167,224.063507,963.436646,-174.448807,1.23114909625514,2.43536257791727,2.16148051951114,10.896133,795.428772,162.508408,128.972305,1180.593262,-15.486259,"CRUZEXT"
82,16,58,33.634,4576.72,0.604958,-0.165882,0.673205,-0.39154,-0.92688,0.32598,-0.04391,4573.6,0.676842,-0.224959,0.567616,-0.411206,-0.94128,0.15683,-0.26583,2.32,2.55,2.71,2.8,3.19,3.08,3.06,3.85,3.21,3.93,4,3.92,3.79,3.84,3.7,2840,11.833333,61113.634333,224.075729,963.430176,-174.455444,1.23117389632203,2.43538896286659,2.16146919693122,10.914419,795.429626,162.507446,128.991898,1180.590088,-15.496745,"CRUZEXT"
83,16,58,33.668,4576.74,0.605007,-0.165894,0.673142,-0.391569,-0.92838,0.32533,-0.04449,4573.62,0.676876,-0.225034,0.56754,-0.411214,-0.94053,0.15733,-0.26385,2.32,2.55,2.71,2.8,3.19,3.08,3.06,3.85,3.21,3.93,3.99,3.93,3.79,3.84,3.7,2849,11.870833,61113.671833,224.266251,963.393127,-174.510254,1.23123202488139,2.43561053792269,2.16127214693043,11.006901,795.514465,162.447861,129.193451,1180.604614,-15.590561,"CRUZEXT"
84,16,58,33.674,4576.76,0.605058,-0.165916,0.673082,-0.391582,-0.92827,0.3245,-0.04285,4573.64,0.676905,-0.225116,0.567441,-0.411258,-0.93886,0.15984,-0.26435,2.33,2.55,2.71,2.8,3.19,3.08,3.06,3.85,3.21,3.93,4,3.92,3.79,3.84,3.7,2850,11.875,61113.676,224.293594,963.392273,-174.515198,1.23125310545653,2.43567705597844,2.16121545242464,11.021224,795.524414,162.432678,129.226089,1180.616943,-15.608315,"CRUZEXT"
85,16,58,33.707,4576.78,0.605131,-0.165883,0.673017,-0.391596,-0.92648,0.32659,-0.0433,4573.66,0.676976,-0.225112,0.56736,-0.411254,-0.93713,0.15839,-0.26533,2.32,2.55,2.71,2.8,3.19,3.08,3.06,3.85,3.21,3.93,4,3.93,3.79,3.84,3.7,2858,11.908333,61113.709333,224.545197,963.398315,-174.575714,1.23115637675552,2.43572673061187,2.16109672478528,11.111678,795.595459,162.345078,129.454803,1180.625,-15.702238,"CRUZEXT"
86,16,58,33.733,4576.8,0.60523,-0.165882,0.672913,-0.391621,-0.92712,0.32631,-0.04157,4573.68,0.676983,-0.225081,0.567381,-0.411232,-0.93595,0.15829,-0.26489,2.32,2.55,2.71,2.8,3.19,3.08,3.06,3.85,3.21,3.93,4,3.92,3.79,3.84,3.7,2864,11.933333,61113.734333,224.779419,963.389648,-174.613342,1.23102249429633,2.43579094938018,2.16093719313335,11.172212,795.642151,162.268021,129.651199,1180.632324,-15.774699,"CRUZEXT"
87,16,58,33.738,4576.82,0.605274,-0.165927,0.672821,-0.391692,-0.92957,0.32561,-0.04318,4573.7,0.677307,-0.224884,0.567218,-0.411031,-0.93368,0.15676,-0.26664,2.32,2.55,2.71,2.8,3.19,3.08,3.06,3.85,3.21,3.93,3.99,3.92,3.79,3.84,3.7,2865,11.9375,61113.7385,224.819122,963.379456,-174.615341,1.23098779687372,2.4358055949155,2.16089797326931,11.189327,795.642273,162.256271,129.681763,1180.62439,-15.786331,"CRUZEXT"
88,16,58,33.789,4576.84,0.60531,-0.165939,0.672741,-0.391771,-0.93134,0.3267,-0.04269,4573.72,0.67734,-0.22486,0.567205,-0.411006,-0.9312,0.15641,-0.2674,2.32,2.55,2.71,2.8,3.19,3.08,3.06,3.86,3.21,3.93,4,3.92,3.79,3.84,3.71,2878,11.991667,61113.792667,225.436325,963.264709,-174.624298,1.23051837404278,2.43625766226214,2.16009579244775,11.347013,795.734009,162.107681,130.182465,1180.570923,-16.001934,"CRUZEXT"
89,16,58,33.794,4576.86,0.605388,-0.165879,0.672621,-0.39188,-0.93021,0.32645,-0.047,4573.74,0.67739,-0.224843,0.567193,-0.41095,-0.93326,0.15412,-0.26543,2.32,2.55,2.71,2.8,3.19,3.08,3.06,3.85,3.21,3.93,4,3.92,3.79,3.84,3.71,2879,11.995833,61113.796833,225.494385,963.24884,-174.619904,1.2304532013952,2.43631784460196,2.15998711259297,11.353629,795.744934,162.099854,130.221237,1180.57019,-16.020407,"CRUZEXT"
90,16,58,33.814,4576.88,0.605498,-0.165824,0.672578,-0.391807,-0.93194,0.32664,-0.04438,4573.76,0.677532,-0.224752,0.567169,-0.410798,-0.93473,0.15344,-0.26357,2.32,2.55,2.71,2.8,3.19,3.08,3.06,3.85,3.21,3.93,4,3.92,3.79,3.84,3.71,2884,12.016667,61113.817667,225.765518,963.164673,-174.600616,1.23011505596512,2.43654889267936,2.15950976967271,11.417666,795.782593,162.050217,130.401596,1180.52832,-16.114729,"CRUZEXT"
91,16,58,33.821,4576.9,0.605617,-0.165738,0.672565,-0.391683,-0.92882,0.32472,-0.04457,4573.78,0.677691,-0.224581,0.567183,-0.410612,-0.93455,0.15304,-0.26196,2.32,2.55,2.71,2.8,3.19,3.08,3.06,3.85,3.21,3.93,3.99,3.92,3.79,3.84,3.71,2885,12.020833,61113.821833,225.809708,963.140198,-174.598282,1.23006845356963,2.43663796723252,2.15938278498111,11.424768,795.794434,162.042389,130.432846,1180.52124,-16.141867,"CRUZEXT"
92,16,58,33.866,4576.92,0.605785,-0.165601,0.672545,-0.391515,-0.92569,0.32389,-0.04313,4573.8,0.67785,-0.224413,0.567182,-0.410443,-0.93649,0.15707,-0.26146,2.32,2.55,2.71,2.8,3.19,3.08,3.06,3.85,3.21,3.93,4,3.92,3.79,3.84,3.71,2896,12.066667,61113.867667,226.373047,962.946411,-174.62233,1.22942971348629,2.43718469766582,2.15836202619263,11.552075,795.89386,161.955017,130.825806,1180.425293,-16.410669,"CRUZEXT"
93,16,58,33.872,4576.94,0.605962,-0.165466,0.672515,-0.391349,-0.92695,0.32436,-0.0447,4573.82,0.678039,-0.224249,0.567122,-0.410301,-0.93764,0.15663,-0.258,2.33,2.55,2.71,2.8,3.19,3.08,3.06,3.86,3.21,3.93,4,3.92,3.79,3.84,3.71,2898,12.075,61113.876,226.460831,962.912048,-174.637558,1.22929485173857,2.43726548783109,2.15818337965067,11.5725,795.915344,161.937347,130.875702,1180.409546,-16.465656,"CRUZEXT"
94,16,58,33.892,4576.96,0.606106,-0.165314,0.672513,-0.391195,-0.92831,0.32565,-0.04323,4573.84,0.678223,-0.224149,0.567035,-0.410173,-0.93823,0.15203,-0.25813,2.33,2.55,2.71,2.8,3.19,3.08,3.06,3.85,3.21,3.93,4,3.92,3.79,3.84,3.71,2902,12.091667,61113.892667,226.628296,962.820496,-174.691818,1.22908390734761,2.43747951694913,2.15781004985312,11.639907,795.9422,161.894836,130.982361,1180.366821,-16.601879,"CRUZEXT"
95,16,58,33.897,4576.98,0.606276,-0.165194,0.672465,-0.391065,-0.92829,0.32612,-0.04395,4573.86,0.678349,-0.224151,0.56695,-0.410081,-0.9367,0.15278,-0.25729,2.32,2.55,2.71,2.8,3.19,3.08,3.06,3.86,3.21,3.93,4,3.92,3.79,3.84,3.71,2904,12.1,61113.901,226.707565,962.761353,-174.717819,1.2289964246928,2.43764243215712,2.15757582271009,11.667589,795.956299,161.869339,131.033707,1180.347778,-16.676283,"CRUZEXT"
96,16,58,33.943,4577,0.60638,-0.165057,0.672414,-0.391049,-0.92876,0.32769,-0.04548,4573.88,0.678519,-0.224124,0.566815,-0.410002,-0.93483,0.15479,-0.25682,2.32,2.55,2.71,2.8,3.19,3.08,3.06,3.85,3.21,3.93,4,3.92,3.79,3.84,3.71,2915,12.145833,61113.946833,227.083084,962.35791,-174.897156,1.22898872596662,2.43898324657424,2.15613520835516,11.794284,796.038635,161.73407,131.3992,1180.209961,-17.185093,"CRUZEXT"
97,16,58,33.949,4577.02,0.606516,-0.164972,0.672341,-0.390999,-0.92908,0.32633,-0.04604,4573.9,0.678677,-0.224236,0.566653,-0.409903,-0.93499,0.15175,-0.25893,2.33,2.55,2.71,2.8,3.19,3.08,3.06,3.85,3.21,3.93,4,3.92,3.79,3.84,3.71,2916,12.15,61113.951,227.113831,962.322388,-174.914597,1.22897561124601,2.43910178021495,2.15599927051046,11.807638,796.042603,161.716095,131.425354,1180.19873,-17.233124,"CRUZEXT"
98,16,58,33.973,4577.04,0.60662,-0.164901,0.672274,-0.390983,-0.9288,0.32622,-0.04592,4573.92,0.678861,-0.224254,0.566501,-0.409799,-0.93283,0.15015,-0.25997,2.33,2.55,2.71,2.8,3.19,3.08,3.06,3.85,3.21,3.93,4,3.92,3.79,3.84,3.71,2922,12.175,61113.976,227.284897,962.101135,-175.033676,1.22894748360095,2.43978325711789,2.15524996861635,11.875099,796.089783,161.626373,131.607758,1180.060059,-17.561665,"CRUZEXT"
99,16,58,33.978,4577.06,0.606682,-0.164787,0.672251,-0.390974,-0.92993,0.32622,-0.04393,4573.94,0.679071,-0.224213,0.566341,-0.409694,-0.93335,0.15287,-0.25971,2.33,2.55,2.71,2.8,3.19,3.08,3.06,3.85,3.21,3.93,4,3.93,3.79,3.84,3.71,2923,12.179167,61113.980167,227.303436,962.058533,-175.05571,1.22895373248479,2.43992591897194,2.15510140024601,11.889832,796.092041,161.607513,131.626602,1180.046875,-17.616802,"CRUZEXT"
100,16,58,34.028,4577.08,0.606763,-0.164716,0.672184,-0.390993,-0.92983,0.32425,-0.04419,4573.96,0.67918,-0.224299,0.566219,-0.409634,-0.9387,0.15339,-0.25916,2.33,2.55,2.71,2.8,3.19,3.08,3.06,3.85,3.21,3.93,3.99,3.92,3.79,3.84,3.71,2935,12.229167,61114.030167,227.525925,961.602051,-175.366852,1.22905249070815,2.44114737052608,2.15386000028783,11.992418,796.189026,161.429535,131.863159,1179.84375,-18.203077,"CRUZEXT"
101,16,58,34.034,4577.1,0.606807,-0.164676,0.672141,-0.391015,-0.92882,0.32364,-0.04508,4573.98,0.679346,-0.224324,0.566055,-0.409571,-0.94263,0.15163,-0.26188,2.33,2.55,2.71,2.8,3.19,3.08,3.06,3.85,3.21,3.93,4,3.92,3.79,3.84,3.7,2936,12.233333,61114.034333,227.541626,961.567444,-175.396271,1.22905344507949,2.44124008896795,2.15376124068641,12.002196,796.191223,161.40889,131.87822,1179.828247,-18.254557,"CRUZEXT"
102,16,58,34.05,4577.12,0.606874,-0.164584,0.672063,-0.391086,-0.92896,0.32258,-0.04658,4574,0.679442,-0.224429,0.565946,-0.409506,-0.94338,0.15219,-0.2614,2.33,2.55,2.71,2.8,3.19,3.08,3.06,3.85,3.21,3.93,4,3.92,3.79,3.84,3.71,2940,12.25,61114.051,227.587952,961.434021,-175.529465,1.22919237973594,2.44161858694619,2.15345081700792,12.050326,796.219299,161.341125,131.962891,1179.762207,-18.463341,"CRUZEXT"
103,16,58,34.07,4577.14,0.606911,-0.164491,0.672,-0.391174,-0.92861,0.32347,-0.04731,4574.02,0.67958,-0.224464,0.565776,-0.409493,-0.94106,0.15229,-0.26118,2.33,2.55,2.71,2.8,3.19,3.08,3.06,3.85,3.21,3.93,3.99,3.92,3.79,3.84,3.71,2945,12.270833,61114.071833,227.623535,961.286682,-175.698578,1.2293011879221,2.44201865440473,2.15309650010951,12.126143,796.257324,161.255829,132.020981,1179.703857,-18.705818,"CRUZEXT"
104,16,58,34.075,4577.16,0.606997,-0.164355,0.671884,-0.391298,-0.92805,0.32427,-0.04778,4574.04,0.679678,-0.224452,0.565669,-0.409486,-0.93928,0.1503,-0.26039,2.33,2.56,2.71,2.8,3.19,3.08,3.06,3.85,3.21,3.93,4,3.92,3.79,3.84,3.71,2946,12.275,61114.076,227.624252,961.25885,-175.733093,1.22933980220308,2.44212174835111,2.1530124499921,12.141102,796.259827,161.240524,132.032257,1179.69458,-18.760656,"CRUZEXT"
105,16,58,34.109,4577.18,0.607081,-0.164194,0.671806,-0.39137,-0.92756,0.32493,-0.04415,4574.06,0.679835,-0.2247,0.565537,-0.409271,-0.94249,0.14589,-0.2651,2.33,2.56,2.71,2.8,3.19,3.08,3.06,3.85,3.21,3.93,4,3.92,3.79,3.84,3.71,2954,12.308333,61114.109333,227.593506,961.107361,-175.994705,1.22980893459713,2.44271490108234,2.15269835528437,12.31164,796.301819,161.125031,132.13591,1179.633301,-19.11064,"CRUZEXT"
106,16,58,34.114,4577.2,0.607127,-0.164076,0.67176,-0.391426,-0.92814,0.32563,-0.04848,4574.08,0.679866,-0.224776,0.565451,-0.409296,-0.94165,0.15458,-0.26536,2.33,2.56,2.71,2.8,3.19,3.08,3.06,3.85,3.21,3.93,4,3.92,3.79,3.84,3.71,2956,12.316667,61114.117667,227.579025,961.068604,-176.061523,1.22995410720618,2.44287403213551,2.15262728789947,12.354291,796.309265,161.105164,132.16037,1179.624023,-19.19422,"CRUZEXT"
107,16,58,34.148,4577.22,0.607176,-0.163962,0.671699,-0.391502,-0.92901,0.32663,-0.04857,4574.1,0.679845,-0.225132,0.565214,-0.409462,-0.9417,0.14969,-0.26343,2.33,2.56,2.71,2.8,3.19,3.08,3.06,3.85,3.21,3.93,4,3.92,3.79,3.84,3.71,2964,12.35,61114.151,227.46286,960.936523,-176.344482,1.23083093611536,2.44349232332702,2.15256514344441,12.508208,796.395935,161.099197,132.288452,1179.586304,-19.505714,"CRUZEXT"
108,16,58,34.153,4577.24,0.607193,-0.163911,0.671631,-0.391615,-0.92857,0.32764,-0.04592,4574.12,0.679797,-0.225344,0.565087,-0.409602,-0.9374,0.14551,-0.2628,2.33,2.55,2.71,2.8,3.19,3.08,3.06,3.85,3.21,3.93,4,3.92,3.79,3.84,3.71,2965,12.354167,61114.155167,227.438599,960.924377,-176.383972,1.2309688109838,2.44356022190316,2.15258671461209,12.529499,796.416077,161.10257,132.302383,1179.584106,-19.541859,"CRUZEXT"
109,16,58,34.188,4577.26,0.607144,-0.163832,0.671635,-0.391718,-0.9288,0.32806,-0.04494,4574.14,0.679739,-0.225479,0.565059,-0.409662,-0.93661,0.14287,-0.26413,2.33,2.56,2.71,2.8,3.19,3.08,3.06,3.85,3.21,3.93,4,3.92,3.79,3.84,3.71,2973,12.3875,61114.1885,227.194794,960.789368,-176.680069,1.23219405335301,2.44416749738849,2.15277288708748,12.692149,796.573364,161.197708,132.389267,1179.55835,-19.795074,"CRUZEXT"
110,16,58,34.194,4577.28,0.607106,-0.163785,0.671641,-0.391784,-0.92766,0.32654,-0.04485,4574.16,0.679638,-0.225859,0.564902,-0.409837,-0.93767,0.14504,-0.26721,2.33,2.56,2.71,2.8,3.19,3.08,3.06,3.85,3.21,3.93,4,3.92,3.79,3.84,3.71,2975,12.395833,61114.196833,227.117203,960.753784,-176.740051,1.23248898165546,2.44433200433419,2.15279768804614,12.744387,796.596375,161.229599,132.393799,1179.546631,-19.853651,"CRUZEXT"
111,16,58,34.246,4577.3,0.60701,-0.163655,0.67167,-0.391938,-0.92643,0.32926,-0.04715,4574.18,0.679488,-0.226299,0.564673,-0.410158,-0.93935,0.14603,-0.27046,2.33,2.56,2.71,2.8,3.19,3.08,3.06,3.85,3.21,3.93,4,3.93,3.79,3.84,3.71,2987,12.445833,61114.246833,226.631363,960.527771,-177.043671,1.23395541456189,2.44530029958479,2.15275785054489,13.047191,796.73999,161.467972,132.300308,1179.503906,-20.162516,"CRUZEXT"
112,16,58,34.251,4577.32,0.606912,-0.163722,0.671687,-0.392034,-0.92782,0.33308,-0.04853,4574.2,0.679393,-0.226792,0.564373,-0.410456,-0.93966,0.14483,-0.26894,2.33,2.56,2.71,2.8,3.19,3.08,3.06,3.85,3.22,3.93,4,3.93,3.79,3.84,3.71,2988,12.45,61114.251,226.599411,960.513184,-177.070709,1.23402288433785,2.44534496444294,2.15275581598562,13.070593,796.751465,161.490784,132.284821,1179.501465,-20.187195,"CRUZEXT"
113,16,58,34.269,4577.34,0.606811,-0.16383,0.6717,-0.392121,-0.92836,0.33404,-0.05197,4574.22,0.679262,-0.227266,0.56409,-0.4108,-0.93858,0.1442,-0.27202,2.33,2.56,2.71,2.8,3.19,3.08,3.06,3.85,3.21,3.93,4,3.92,3.79,3.84,3.7,2993,12.470833,61114.271833,226.415039,960.407043,-177.148254,1.23437498077062,2.44572087447225,2.15259203670637,13.196361,796.779358,161.5867,132.197723,1179.458496,-20.307819,"CRUZEXT"
114,16,58,34.274,4577.36,0.606719,-0.163918,0.671596,-0.392404,-0.93379,0.33819,-0.05212,4574.24,0.679214,-0.227521,0.563889,-0.411014,-0.93616,0.14355,-0.27394,2.33,2.56,2.71,2.8,3.19,3.08,3.06,3.85,3.21,3.93,4,3.92,3.79,3.84,3.71,2994,12.475,61114.276,226.382904,960.386475,-177.160904,1.23441815821108,2.44580654759649,2.15252952907595,13.227188,796.77417,161.604355,132.178528,1179.450562,-20.337551,"CRUZEXT"
115,16,58,34.329,4577.38,0.606633,-0.164127,0.671465,-0.392676,-0.92843,0.33765,-0.05115,4574.26,0.679486,-0.227432,0.563601,-0.411009,-0.93778,0.14584,-0.27597,2.33,2.56,2.71,2.8,3.19,3.08,3.06,3.85,3.21,3.93,4,3.92,3.79,3.84,3.71,3007,12.529167,61114.330167,226.022461,960.156067,-177.233704,1.2344849190454,2.44660346218823,2.15172065043659,13.445237,796.75592,161.747025,131.847885,1179.338379,-20.622934,"CRUZEXT"
116,16,58,34.334,4577.4,0.606513,-0.164209,0.671408,-0.392924,-0.91931,0.33357,-0.04731,4574.28,0.679576,-0.227354,0.563437,-0.411127,-0.94053,0.14607,-0.27881,2.33,2.56,2.71,2.8,3.19,3.08,3.06,3.85,3.21,3.93,4,3.92,3.79,3.84,3.71,3008,12.533333,61114.334333,225.999847,960.145081,-177.234238,1.23444514675123,2.44661512573903,2.15168113721816,13.460151,796.752014,161.750961,131.811172,1179.337402,-20.627266,"CRUZEXT"
117,16,58,34.348,4577.42,0.606426,-0.164435,0.671281,-0.393181,-0.9229,0.33048,-0.04682,4574.3,0.67977,-0.22723,0.56319,-0.411214,-0.94298,0.14907,-0.27666,2.33,2.56,2.71,2.8,3.19,3.08,3.06,3.85,3.21,3.93,4,3.92,3.79,3.84,3.71,3012,12.55,61114.351,225.929276,960.116943,-177.249817,1.23431243704921,2.44671328239858,2.15148574402424,13.482514,796.734253,161.73674,131.703247,1179.330933,-20.686798,"CRUZEXT"
118,16,58,34.355,4577.44,0.60628,-0.164731,0.671148,-0.393508,-0.92594,0.32969,-0.04984,4574.32,0.679902,-0.227127,0.562979,-0.411341,-0.94073,0.15409,-0.27187,2.33,2.56,2.71,2.8,3.19,3.08,3.06,3.85,3.21,3.92,4,3.92,3.79,3.84,3.7,3013,12.554167,61114.355167,225.909439,960.109436,-177.254898,1.23427701272944,2.44670233965112,2.15147340698382,13.486793,796.7276,161.725815,131.672562,1179.324463,-20.692654,"CRUZEXT"
119,16,58,34.388,4577.46,0.606092,-0.16503,0.671058,-0.393825,-0.92697,0.3267,-0.04818,4574.34,0.679959,-0.227052,0.562804,-0.411528,-0.94057,0.15252,-0.27258,2.33,2.56,2.71,2.8,3.19,3.08,3.06,3.85,3.21,3.93,4,3.92,3.79,3.84,3.71,3021,12.5875,61114.3885,225.807205,960.142273,-177.273376,1.23369957386431,2.44650499082069,2.15129234344925,13.484998,796.657837,161.629654,131.415924,1179.318604,-20.756216,"CRUZEXT"
120,16,58,34.393,4577.48,0.605899,-0.16534,0.670986,-0.394116,-0.92372,0.32216,-0.05106,4574.36,0.680037,-0.226887,0.562669,-0.411674,-0.93867,0.14973,-0.27494,2.33,2.56,2.71,2.8,3.19,3.08,3.06,3.85,3.21,3.93,4,3.92,3.79,3.84,3.7,3023,12.595833,61114.396833,225.789063,960.162903,-177.278015,1.23353774043846,2.44643237618069,2.15126005611741,13.475688,796.637878,161.597122,131.352371,1179.3302,-20.765533,"CRUZEXT"
121,16,58,34.446,4577.5,0.605729,-0.165606,0.67098,-0.394276,-0.92693,0.32143,-0.05296,4574.38,0.680038,-0.226675,0.562629,-0.411843,-0.93703,0.14791,-0.27304,2.33,2.56,2.71,2.8,3.19,3.08,3.06,3.85,3.21,3.93,4,3.92,3.79,3.84,3.71,3035,12.645833,61114.446833,225.686691,960.345276,-177.266602,1.23223614331736,2.44548301120251,2.15139078840311,13.356835,796.482483,161.435715,130.88916,1179.362915,-20.70578,"CRUZEXT"
122,16,58,34.452,4577.52,0.605528,-0.165768,0.671043,-0.394409,-0.92627,0.32101,-0.04769,4574.4,0.680066,-0.226388,0.562658,-0.411917,-0.93708,0.14661,-0.27257,2.33,2.56,2.71,2.8,3.19,3.08,3.06,3.85,3.21,3.93,4,3.93,3.79,3.85,3.7,3037,12.654167,61114.455167,225.669754,960.379944,-177.257217,1.23205162513392,2.44530807388608,2.15145240842872,13.326567,796.453735,161.4198,130.823166,1179.364136,-20.682709,"CRUZEXT"
123,16,58,34.47,4577.54,0.605329,-0.165904,0.671145,-0.394484,-0.92679,0.32101,-0.04832,4574.42,0.680021,-0.226024,0.562769,-0.412039,-0.93422,0.14629,-0.27333,2.33,2.56,2.71,2.8,3.18,3.08,3.06,3.85,3.21,3.93,4,3.92,3.79,3.84,3.71,3041,12.670833,61114.471833,225.626038,960.433167,-177.230927,1.23170092607673,2.44501384226911,2.15152834245028,13.26982,796.380981,161.401566,130.681854,1179.37085,-20.633032,"CRUZEXT"
124,16,58,34.476,4577.56,0.605216,-0.166003,0.671263,-0.394415,-0.92819,0.32181,-0.0496,4574.44,0.679974,-0.225722,0.562876,-0.412136,-0.93326,0.14532,-0.27154,2.33,2.56,2.71,2.8,3.18,3.08,3.06,3.85,3.21,3.93,4,3.92,3.79,3.84,3.71,3042,12.675,61114.476,225.621231,960.447327,-177.222824,1.23158069181051,2.44491254413911,2.15155478838255,13.255053,796.366028,161.393356,130.64299,1179.370361,-20.615826,"CRUZEXT"
125,16,58,34.508,4577.58,0.60509,-0.165942,0.671512,-0.394208,-0.92552,0.32213,-0.04899,4574.46,0.679963,-0.225564,0.562932,-0.412164,-0.93481,0.14535,-0.27211,2.33,2.56,2.71,2.8,3.19,3.08,3.06,3.85,3.21,3.93,4,3.93,3.79,3.84,3.7,3050,12.708333,61114.509333,225.462021,960.541199,-177.140182,1.23127139738092,2.4444570482615,2.15183184210059,13.105413,796.254883,161.383286,130.394241,1179.395264,-20.456707,"CRUZEXT"
126,16,58,34.514,4577.6,0.605009,-0.165745,0.671832,-0.393872,-0.92676,0.32242,-0.0474,4574.48,0.679878,-0.225441,0.563012,-0.412262,-0.93593,0.14701,-0.27026,2.33,2.57,2.71,2.8,3.19,3.08,3.06,3.85,3.21,3.93,4,3.93,3.79,3.84,3.7,3052,12.716667,61114.517667,225.41478,960.560669,-177.119797,1.23121456797311,2.44432439815651,2.15193525337071,13.061977,796.226074,161.390808,130.326736,1179.401855,-20.40346,"CRUZEXT"
127,16,58,34.565,4577.62,0.604933,-0.165544,0.672161,-0.39351,-0.92592,0.32741,-0.04893,4574.5,0.679811,-0.225608,0.563015,-0.412277,-0.93748,0.14701,-0.27005,2.33,2.57,2.71,2.8,3.19,3.08,3.06,3.85,3.21,3.93,4,3.92,3.79,3.84,3.7,3064,12.766667,61114.567667,225.032379,960.718872,-176.929001,1.23116040349055,2.44360688828311,2.15266777739691,12.831928,796.049744,161.48793,129.921692,1179.447021,-20.024618,"CRUZEXT"
128,16,58,34.571,4577.64,0.604892,-0.165384,0.672437,-0.39317,-0.92496,0.32896,-0.05183,4574.52,0.679694,-0.225664,0.563098,-0.412327,-0.93764,0.14701,-0.2708,2.33,2.57,2.71,2.8,3.19,3.08,3.06,3.85,3.21,3.93,4,3.92,3.79,3.84,3.7,3065,12.770833,61114.571833,224.989136,960.733704,-176.915833,1.23119880298525,2.44354924690769,2.15275585695211,12.817595,796.035217,161.50174,129.888672,1179.451538,-19.990255,"CRUZEXT"
129,16,58,34.588,4577.66,0.604861,-0.165213,0.672684,-0.392866,-0.92405,0.32924,-0.04726,4574.54,0.679591,-0.225696,0.563179,-0.412368,-0.93835,0.14554,-0.27232,2.33,2.57,2.71,2.8,3.19,3.08,3.06,3.85,3.21,3.93,3.99,3.92,3.79,3.84,3.71,3069,12.7875,61114.5885,224.836578,960.780151,-176.832642,1.23125381818765,2.44343410683907,2.15291694360026,12.760699,795.981995,161.535767,129.755722,1179.46582,-19.876568,"CRUZEXT"
130,16,58,34.594,4577.68,0.604829,-0.165116,0.672883,-0.392615,-0.92493,0.33018,-0.04892,4574.56,0.679529,-0.225788,0.563191,-0.412404,-0.93658,0.15025,-0.27229,2.33,2.57,2.71,2.81,3.19,3.08,3.06,3.85,3.21,3.93,4,3.93,3.79,3.84,3.7,3071,12.795833,61114.596833,224.744705,960.808167,-176.79425,1.23130915214459,2.44338294272362,2.15300963522115,12.740731,795.941772,161.554581,129.681747,1179.477539,-19.821032,"CRUZEXT"
131,16,58,34.646,4577.7,0.604809,-0.164976,0.673011,-0.392486,-0.92997,0.33198,-0.04836,4574.58,0.679405,-0.225806,0.563239,-0.412532,-0.93893,0.15299,-0.27414,2.33,2.57,2.71,2.81,3.19,3.08,3.06,3.85,3.21,3.93,4,3.92,3.79,3.84,3.7,3083,12.845833,61114.646833,224.309982,960.980591,-176.544327,1.2312874308711,2.44287928388597,2.15353471100618,12.632236,795.766663,161.672653,129.242828,1179.553711,-19.44866,"CRUZEXT"
132,16,58,34.651,4577.72,0.604776,-0.164977,0.673102,-0.39238,-0.92836,0.3318,-0.04525,4574.6,0.679337,-0.225773,0.563231,-0.412672,-0.93741,0.15466,-0.27216,2.33,2.57,2.71,2.81,3.19,3.08,3.06,3.85,3.21,3.93,4,3.93,3.79,3.84,3.7,3084,12.85,61114.651,224.285629,960.999512,-176.526215,1.2312864707207,2.44282104520289,2.15359647723664,12.623745,795.75531,161.679413,129.217972,1179.5625,-19.415422,"CRUZEXT"
133,16,58,34.669,4577.74,0.604755,-0.164988,0.67316,-0.392308,-0.92517,0.33032,-0.04609,4574.62,0.67923,-0.225774,0.56327,-0.412794,-0.93452,0.15562,-0.27229,2.33,2.57,2.71,2.8,3.19,3.08,3.06,3.85,3.21,3.93,4,3.92,3.79,3.84,3.71,3089,12.870833,61114.671833,224.158981,961.069397,-176.437027,1.23112879289011,2.44254809934263,2.1537812525772,12.612789,795.67395,161.709686,129.047333,1179.585815,-19.279636,"CRUZEXT"
134,16,58,34.675,4577.76,0.604636,-0.164921,0.673281,-0.392312,-0.92667,0.33311,-0.04135,4574.64,0.679145,-0.225721,0.563307,-0.412914,-0.93427,0.15745,-0.27237,2.33,2.57,2.71,2.81,3.19,3.08,3.06,3.85,3.21,3.93,4,3.92,3.79,3.84,3.7,3090,12.875,61114.676,224.139572,961.086792,-176.41539,1.23108858643215,2.44248391821704,2.1538225553966,12.61191,795.661255,161.711929,129.017044,1179.591553,-19.24806,"CRUZEXT"
135,16,58,34.709,4577.78,0.604584,-0.165007,0.673317,-0.392295,-0.92796,0.33135,-0.04013,4574.66,0.679079,-0.225513,0.563356,-0.413068,-0.93413,0.15763,-0.27204,2.33,2.57,2.71,2.81,3.19,3.08,3.06,3.85,3.22,3.93,4,3.92,3.79,3.84,3.7,3098,12.908333,61114.709333,224.005707,961.219177,-176.278702,1.23062033495354,2.4418447556919,2.15418732192218,12.591307,795.550781,161.726974,128.750885,1179.62085,-19.014101,"CRUZEXT"
136,16,58,34.714,4577.8,0.604488,-0.164987,0.673407,-0.392296,-0.92615,0.33046,-0.03836,4574.68,0.678988,-0.225302,0.563463,-0.413187,-0.93426,0.1585,-0.27216,2.33,2.57,2.71,2.81,3.19,3.08,3.06,3.85,3.21,3.93,4,3.92,3.79,3.85,3.7,3100,12.916667,61114.717667,223.980713,961.251709,-176.24379,1.23051234936521,2.44168488749905,2.1542847560857,12.587588,795.529297,161.728577,128.692871,1179.633057,-18.94944,"CRUZEXT"
137,16,58,34.748,4577.82,0.604406,-0.165089,0.673489,-0.39224,-0.92773,0.33022,-0.0391,4574.7,0.678993,-0.225101,0.563487,-0.413256,-0.93352,0.15484,-0.27239,2.33,2.57,2.71,2.81,3.19,3.08,3.06,3.86,3.21,3.93,4,3.92,3.79,3.84,3.7,3108,12.95,61114.751,223.938629,961.388916,-176.112823,1.22996432209036,2.44105166580856,2.1545881044816,12.560196,795.439697,161.70787,128.494965,1179.672852,-18.732443,"CRUZEXT"
138,16,58,34.753,4577.84,0.604322,-0.165188,0.673569,-0.392189,-0.92869,0.32997,-0.03861,4574.72,0.678931,-0.224905,0.563571,-0.413349,-0.93352,0.15512,-0.27213,2.33,2.57,2.71,2.81,3.19,3.08,3.06,3.85,3.21,3.93,4,3.93,3.79,3.84,3.7,3109,12.954167,61114.755167,223.93248,961.406189,-176.097702,1.22991240682953,2.44096029778779,2.15465044600383,12.561892,795.421814,161.698318,128.476486,1179.669556,-18.705175,"CRUZEXT"
139,16,58,34.809,4577.86,0.604155,-0.165229,0.67374,-0.392136,-0.92904,0.32921,-0.03809,4574.74,0.678897,-0.224688,0.563648,-0.413419,-0.9315,0.15597,-0.27,2.33,2.57,2.71,2.81,3.19,3.08,3.06,3.85,3.22,3.92,4,3.92,3.79,3.84,3.7,3122,13.008333,61114.809333,223.901489,961.5177,-175.914459,1.22919617266033,2.44033531046527,2.15482910000861,12.524981,795.268127,161.60524,128.249237,1179.674072,-18.473534,"CRUZEXT"
140,16,58,34.815,4577.88,0.604019,-0.165364,0.673853,-0.392094,-0.9281,0.32701,-0.03791,4574.76,0.678853,-0.224575,0.563719,-0.413455,-0.93152,0.1533,-0.26791,2.33,2.57,2.71,2.81,3.18,3.08,3.06,3.85,3.21,3.93,4,3.92,3.79,3.84,3.7,3124,13.016667,61114.817667,223.893326,961.527222,-175.887695,1.22913454888833,2.44026503097866,2.15486212459569,12.519717,795.245239,161.599121,128.225616,1179.668091,-18.440748,"CRUZEXT"
141,16,58,34.829,4577.9,0.603847,-0.165461,0.674041,-0.391995,-0.92981,0.32664,-0.03737,4574.78,0.678779,-0.224404,0.563802,-0.413556,-0.93281,0.1536,-0.26854,2.33,2.57,2.71,2.81,3.19,3.08,3.06,3.85,3.21,3.93,4,3.92,3.79,3.84,3.7,3127,13.029167,61114.830167,223.879013,961.543945,-175.837875,1.22899037219143,2.4401778551367,2.15485658362292,12.518457,795.208313,161.58432,128.175003,1179.663086,-18.396338,"CRUZEXT"
142,16,58,34.834,4577.92,0.603713,-0.165548,0.674208,-0.391878,-0.93044,0.32818,-0.03978,4574.8,0.678749,-0.224309,0.563842,-0.413603,-0.93492,0.15238,-0.27084,2.33,2.57,2.71,2.81,3.19,3.08,3.06,3.85,3.21,3.92,4,3.93,3.79,3.84,3.7,3128,13.033333,61114.834333,223.87381,961.546021,-175.826721,1.22894258033973,2.44014932543665,2.15485434599355,12.518702,795.193054,161.58046,128.155441,1179.66333,-18.383245,"CRUZEXT"
143,16,58,34.868,4577.94,0.603571,-0.165636,0.67439,-0.391744,-0.93056,0.32683,-0.03864,4574.82,0.678713,-0.224134,0.563894,-0.413686,-0.93389,0.15234,-0.268,2.33,2.57,2.71,2.81,3.19,3.08,3.06,3.85,3.21,3.93,4,3.92,3.79,3.84,3.7,3137,13.070833,61114.871833,223.778976,961.535828,-175.689743,1.22872675112094,2.43998461996699,2.15488263255286,12.486548,795.083069,161.560318,127.999916,1179.628784,-18.235199,"CRUZEXT"
144,16,58,34.873,4577.96,0.603493,-0.165673,0.674552,-0.391571,-0.93021,0.32614,-0.03884,4574.84,0.678658,-0.223988,0.563965,-0.413758,-0.93202,0.15266,-0.26533,2.33,2.57,2.71,2.81,3.19,3.08,3.06,3.85,3.21,3.93,4,3.92,3.79,3.84,3.7,3138,13.075,61114.876,223.763657,961.526978,-175.677002,1.22871622202272,2.4399788325977,2.15488160189795,12.485384,795.071106,161.564011,127.977356,1179.628906,-18.215456,"CRUZEXT"
145,16,58,34.925,4577.98,0.603389,-0.16569,0.674748,-0.391387,-0.92583,0.32786,-0.03646,4574.86,0.678517,-0.224106,0.564051,-0.413808,-0.93379,0.15271,-0.26563,2.33,2.57,2.71,2.81,3.18,3.08,3.06,3.85,3.21,3.93,4,3.92,3.79,3.84,3.7,3150,13.125,61114.926,223.505478,961.484192,-175.494049,1.22887589748019,2.43983613756524,2.15514416947014,12.336967,794.943481,161.574173,127.767921,1179.546631,-17.979488,"CRUZEXT"
146,16,58,34.93,4578,0.6033,-0.165647,0.674958,-0.39118,-0.92756,0.32793,-0.03653,4574.88,0.678414,-0.224036,0.564116,-0.413927,-0.93605,0.15222,-0.26964,2.33,2.57,2.71,2.81,3.19,3.08,3.06,3.85,3.21,3.93,4,3.93,3.79,3.84,3.69,3151,13.129167,61114.930167,223.482224,961.482788,-175.483948,1.22889818293664,2.43981723832505,2.15517971884884,12.327781,794.927673,161.572418,127.751785,1179.539185,-17.962769,"CRUZEXT"
147,16,58,34.948,4578.02,0.603227,-0.165612,0.675167,-0.390946,-0.92821,0.33008,-0.03624,4574.9,0.678323,-0.224105,0.564196,-0.41393,-0.93778,0.15482,-0.26702,2.33,2.57,2.71,2.81,3.19,3.08,3.06,3.85,3.21,3.93,4,3.93,3.79,3.84,3.7,3156,13.15,61114.951,223.333939,961.446228,-175.412796,1.22901633940335,2.43977448698786,2.15530661897528,12.239279,794.875,161.598785,127.631264,1179.503906,-17.854778,"CRUZEXT"
148,16,58,34.953,4578.04,0.603155,-0.165613,0.675336,-0.390765,-0.92871,0.33058,-0.03962,4574.92,0.678231,-0.224079,0.564261,-0.414006,-0.93464,0.15479,-0.26742,2.33,2.57,2.71,2.8,3.19,3.08,3.06,3.85,3.21,3.92,4,3.92,3.79,3.84,3.69,3157,13.154167,61114.955167,223.29538,961.435059,-175.40004,1.22908734343351,2.43980545849442,2.15532215564876,12.223013,794.872314,161.60611,127.612518,1179.496826,-17.839493,"CRUZEXT"
149,16,58,35.004,4578.06,0.603063,-0.16561,0.675498,-0.390629,-0.9273,0.3286,-0.03805,4574.94,0.67813,-0.2241,0.564311,-0.414092,-0.94196,0.15717,-0.26433,2.33,2.57,2.71,2.8,3.18,3.08,3.06,3.85,3.21,3.93,4,3.92,3.79,3.84,3.69,3169,13.204167,61115.005167,222.957413,961.442932,-175.232483,1.22920757210068,2.43937946264255,2.15586092995187,12.031802,794.708679,161.653229,127.299828,1179.442261,-17.532007,"CRUZEXT"
150,16,58,35.009,4578.08,0.603013,-0.165574,0.675669,-0.390425,-0.92622,0.32835,-0.03782,4574.96,0.678113,-0.22411,0.564389,-0.414008,-0.93696,0.15304,-0.27365,2.33,2.57,2.71,2.81,3.19,3.08,3.06,3.85,3.21,3.93,4,3.92,3.79,3.84,3.69,3170,13.208333,61115.009333,222.926605,961.442566,-175.213425,1.22921061298608,2.43934334982501,2.1559016915698,12.015298,794.695496,161.656174,127.269058,1179.437012,-17.501959,"CRUZEXT"
151,16,58,35.029,4578.1,0.60298,-0.165539,0.67578,-0.3903,-0.9278,0.32917,-0.04035,4574.98,0.677976,-0.224062,0.564556,-0.41403,-0.9397,0.16002,-0.27243,2.33,2.57,2.71,2.8,3.19,3.08,3.06,3.85,3.21,3.93,4,3.92,3.79,3.84,3.69,3175,13.229167,61115.030167,222.764404,961.454102,-175.136948,1.22926363545879,2.43913358192547,2.1561626763169,11.94999,794.640381,161.701859,127.117561,1179.417969,-17.357481,"CRUZEXT"
152,16,58,35.034,4578.12,0.602967,-0.16556,0.67587,-0.390154,-0.92836,0.32758,-0.03831,4575,0.677899,-0.224049,0.56469,-0.413981,-0.93485,0.157,-0.26657,2.33,2.57,2.71,2.81,3.19,3.08,3.06,3.85,3.21,3.92,4,3.93,3.79,3.84,3.69,3176,13.233333,61115.034333,222.730896,961.455688,-175.125,1.22929987867732,2.43911280606873,2.15620975875918,11.932558,794.628906,161.709915,127.095444,1179.411987,-17.33703,"CRUZEXT"
153,16,58,35.082,4578.14,0.602972,-0.165565,0.67594,-0.390025,-0.92732,0.32877,-0.03927,4575.02,0.677768,-0.22405,0.564783,-0.414067,-0.92836,0.15812,-0.26491,2.33,2.57,2.71,2.81,3.18,3.08,3.06,3.85,3.21,3.92,4.01,3.92,3.79,3.84,3.69,3188,13.283333,61115.084333,222.373871,961.453735,-174.973114,1.22969655022106,2.43885435593435,2.15675805699562,11.780757,794.438843,161.770813,126.841324,1179.371094,-17.048321,"CRUZEXT"
154,16,58,35.088,4578.16,0.602967,-0.165469,0.675984,-0.389994,-0.92782,0.33135,-0.03489,4575.04,0.677619,-0.22407,0.564917,-0.414119,-0.93309,0.15758,-0.27028,2.33,2.57,2.71,2.8,3.19,3.08,3.06,3.85,3.21,3.92,4,3.93,3.79,3.84,3.69,3189,13.2875,61115.0885,222.348053,961.46167,-174.953125,1.22969864002958,2.43881978290176,2.1567964931646,11.769289,794.42981,161.779282,126.81691,1179.370728,-17.020578,"CRUZEXT"
155,16,58,35.108,4578.18,0.602908,-0.165439,0.676121,-0.389862,-0.92897,0.32608,-0.03714,4575.06,0.677534,-0.224054,0.565044,-0.414093,-0.93809,0.15681,-0.27002,2.33,2.57,2.71,2.81,3.19,3.08,3.06,3.85,3.21,3.92,4.01,3.93,3.79,3.84,3.69,3194,13.308333,61115.109333,222.20105,961.484985,-174.876602,1.22979691102375,2.43863404200225,2.15706250862482,11.732605,794.376648,161.784286,126.695023,1179.362793,-16.878565,"CRUZEXT"
156,16,58,35.113,4578.2,0.602894,-0.165224,0.676075,-0.390055,-0.92657,0.32542,-0.03735,4575.08,0.677388,-0.224006,0.565165,-0.414193,-0.94148,0.15989,-0.27117,2.33,2.57,2.71,2.81,3.19,3.08,3.07,3.85,3.21,3.92,4,3.93,3.79,3.84,3.69,3195,13.3125,61115.1135,222.172897,961.494019,-174.855103,1.2298074185817,2.43862809044341,2.15707606358606,11.730487,794.355774,161.782776,126.670715,1179.368408,-16.855524,"CRUZEXT"
157,16,58,35.172,4578.22,0.602791,-0.165266,0.676212,-0.389959,-0.93297,0.33575,-0.03181,4575.1,0.677225,-0.224073,0.565196,-0.41438,-0.9435,0.15864,-0.27234,2.33,2.57,2.71,2.81,3.19,3.08,3.06,3.85,3.21,3.92,4,3.93,3.79,3.84,3.69,3210,13.375,61115.176,221.69101,961.763611,-174.632477,1.22951742649776,2.43738711827648,2.15820549230689,11.701405,794.172485,161.807175,126.105385,1179.421021,-16.355381,"CRUZEXT"
158,16,58,35.178,4578.24,0.602753,-0.165353,0.676248,-0.389918,-0.92454,0.32581,-0.03425,4575.12,0.677049,-0.224058,0.565149,-0.41474,-0.94175,0.15625,-0.26923,2.33,2.57,2.71,2.81,3.19,3.08,3.07,3.85,3.21,3.92,4,3.93,3.79,3.84,3.69,3211,13.379167,61115.180167,221.658783,961.779114,-174.612961,1.22944650272599,2.43726926091769,2.15828306013999,11.700858,794.160217,161.798599,126.049324,1179.425537,-16.309566,"CRUZEXT"
159,16,58,35.182,4578.26,0.602618,-0.16536,0.676375,-0.389904,-0.9236,0.32989,-0.03184,4575.14,0.676928,-0.223849,0.56502,-0.415227,-0.9353,0.15431,-0.26965,2.33,2.57,2.71,2.81,3.18,3.07,3.07,3.85,3.21,3.92,4,3.92,3.79,3.84,3.69,3212,13.383333,61115.184333,221.625763,961.794495,-174.596542,1.22940055482779,2.43715419183449,2.15837471586047,11.700203,794.144653,161.804932,126.000809,1179.426758,-16.266178,"CRUZEXT"
160,16,58,35.231,4578.28,0.602572,-0.165388,0.676479,-0.389783,-0.9307,0.32619,-0.03261,4575.16,0.67696,-0.223292,0.564829,-0.415733,-0.93455,0.15184,-0.273,2.33,2.57,2.71,2.81,3.19,3.08,3.07,3.85,3.21,3.92,4.01,3.93,3.79,3.84,3.69,3224,13.433333,61115.234333,221.133667,961.933472,-174.402161,1.22898380169491,2.43611843874637,2.15919728631612,11.632377,793.940613,161.836838,125.364426,1179.447021,-15.823106,"CRUZEXT"
161,16,58,35.236,4578.3,0.602454,-0.165348,0.676698,-0.389603,-0.93314,0.32886,-0.02769,4575.18,0.677096,-0.222344,0.564452,-0.416531,-0.93314,0.15557,-0.27372,2.33,2.57,2.71,2.81,3.19,3.07,3.07,3.85,3.21,3.92,4,3.92,3.79,3.84,3.69,3225,13.4375,61115.2385,221.07663,961.943665,-174.394684,1.22899660736131,2.43602074957834,2.15931048788146,11.620942,793.921692,161.848938,125.307785,1179.446045,-15.783673,"CRUZEXT"
162,16,58,35.241,4578.32,0.602375,-0.16538,0.676871,-0.389409,-0.93187,0.33017,-0.02893,4575.2,0.677279,-0.221124,0.563911,-0.417615,-0.92993,0.16645,-0.26915,2.33,2.57,2.71,2.8,3.19,3.08,3.07,3.85,3.2,3.92,4,3.93,3.79,3.84,3.69,3226,13.441667,61115.242667,221.007523,961.960327,-174.395874,1.22905878555587,2.43593910575925,2.15944028973082,11.617296,793.893372,161.861618,125.255554,1179.447266,-15.754245,"CRUZEXT"
163,16,58,35.283,4578.34,0.60224,-0.165475,0.677062,-0.389247,-0.9293,0.32999,-0.02842,4575.22,0.677168,-0.219972,0.563398,-0.419093,-0.93663,0.18079,-0.25164,2.33,2.57,2.71,2.8,3.19,3.08,3.07,3.85,3.2,3.92,4,3.93,3.79,3.84,3.69,3236,13.483333,61115.284333,220.229828,962.37854,-174.669586,1.2293605658418,2.43305543759465,2.16272619065019,11.461286,793.655701,162.022583,124.518745,1179.421753,-15.18073,"CRUZEXT"
164,16,58,35.289,4578.36,0.602053,-0.165576,0.677324,-0.389037,-0.92676,0.3245,-0.02801,4575.24,0.676701,-0.218735,0.563046,-0.420963,-0.94716,0.18565,-0.25112,2.33,2.57,2.71,2.81,3.19,3.08,3.07,3.85,3.2,3.92,4.01,3.93,3.79,3.84,3.69,3238,13.491667,61115.292667,220.027435,962.546692,-174.804657,1.22944343523145,2.43198260419822,2.16392707482096,11.414426,793.599731,162.074265,124.324654,1179.421997,-15.007648,"CRUZEXT"
165,16,58,35.308,4578.38,0.601856,-0.165668,0.677601,-0.388818,-0.92721,0.32476,-0.03109,4575.26,0.675755,-0.217471,0.562814,-0.42344,-0.94807,0.20128,-0.23936,2.33,2.57,2.71,2.81,3.18,3.07,3.07,3.85,3.2,3.92,4,3.93,3.79,3.84,3.69,3242,13.508333,61115.309333,219.576767,962.972534,-175.155869,1.22981701489787,2.42962976030219,2.16668813526313,11.324262,793.478638,162.172852,123.955513,1179.452271,-14.672868,"CRUZEXT"
166,16,58,35.313,4578.4,0.601647,-0.165765,0.677883,-0.388609,-0.92753,0.32663,-0.03083,4575.28,0.674339,-0.216181,0.562663,-0.426549,-0.95067,0.21143,-0.24445,2.33,2.57,2.71,2.81,3.19,3.08,3.07,3.85,3.2,3.92,4,3.93,3.79,3.84,3.69,3243,13.5125,61115.3135,219.439819,963.075745,-175.257965,1.22995745900928,2.42900402059623,2.16744952535108,11.30269,793.445068,162.201569,123.844902,1179.4646,-14.575474,"CRUZEXT"
167,16,58,35.348,4578.42,0.601409,-0.165919,0.67819,-0.388377,-0.92758,0.32853,-0.03282,4575.3,0.672424,-0.214678,0.562686,-0.430284,-0.94517,0.22433,-0.26097,2.33,2.57,2.71,2.81,3.19,3.08,3.07,3.85,3.2,3.92,4,3.93,3.79,3.84,3.69,3252,13.55,61115.351,218.068375,964.365723,-176.372925,1.23108811190628,2.42192836396296,2.17572662085067,11.094281,793.118164,162.448303,122.702957,1179.596191,-13.609381,"CRUZEXT"
168,16,58,35.353,4578.44,0.601127,-0.166139,0.678466,-0.388237,-0.92294,0.32865,-0.03456,4575.32,0.669994,-0.212878,0.562889,-0.434681,-0.96711,0.24013,-0.27672,2.33,2.57,2.71,2.81,3.19,3.07,3.07,3.85,3.2,3.92,4,3.93,3.79,3.84,3.69,3253,13.554167,61115.355167,217.908005,964.545227,-176.506073,1.23122477347272,2.42106418242405,2.17673383838017,11.065001,793.086548,162.478333,122.578835,1179.614014,-13.504423,"CRUZEXT"
169,16,58,35.388,4578.46,0.600797,-0.166352,0.67876,-0.388142,-0.92486,0.32978,-0.03578,4575.34,0.667019,-0.211042,0.562829,-0.440193,-0.9594,0.26939,-0.28116,2.33,2.57,2.71,2.81,3.19,3.08,3.07,3.85,3.2,3.92,4,3.93,3.79,3.84,3.69,3261,13.5875,61115.3885,216.473404,966.212036,-177.943848,1.23266291826107,2.41295476795697,2.18626072831106,10.81811,792.788147,162.777451,121.451462,1179.924561,-12.567519,"CRUZEXT"
170,16,58,35.393,4578.48,0.600491,-0.166627,0.679055,-0.387983,-0.92657,0.3306,-0.03151,4575.36,0.66305,-0.20965,0.562297,-0.447475,-0.93471,0.28882,-0.25844,2.33,2.57,2.71,2.81,3.18,3.07,3.07,3.85,3.2,3.92,4,3.92,3.79,3.84,3.69,3263,13.595833,61115.396833,216.09053,966.695007,-178.387146,1.23302416388951,2.41051922377458,2.18906505826344,10.752485,792.714783,162.862442,121.137459,1180.006958,-12.305285,"CRUZEXT"
171,16,58,35.427,4578.5,0.600232,-0.166834,0.679352,-0.387774,-0.92454,0.33025,-0.03043,4575.38,0.658449,-0.207747,0.561819,-0.455681,-0.94578,0.30913,-0.2432,2.33,2.57,2.71,2.81,3.19,3.07,3.07,3.85,3.2,3.92,4,3.93,3.79,3.84,3.69,3271,13.629167,61115.430167,214.433624,968.85907,-180.649979,1.23536575296233,2.39936720404242,2.20230036891506,10.467478,792.412842,163.162155,120.000771,1180.277466,-11.289637,"CRUZEXT"
172,16,58,35.433,4578.52,0.600006,-0.167085,0.679633,-0.387523,-0.92364,0.32811,-0.0274,4575.4,0.653317,-0.205125,0.561493,-0.46457,-0.94728,0.3284,-0.23901,2.33,2.57,2.71,2.81,3.19,3.07,3.07,3.85,3.2,3.92,4,3.93,3.79,3.84,3.69,3272,13.633333,61115.434333,214.200943,969.177856,-180.993912,1.23562005324153,2.39764390883549,2.20426677749857,10.434925,792.372864,163.208069,119.811958,1180.317749,-11.133547,"CRUZEXT"
173,16,58,35.467,4578.54,0.599802,-0.167347,0.679907,-0.387246,-0.92576,0.32645,-0.02963,4575.42,0.647194,-0.20208,0.561038,-0.474911,-0.94214,0.38731,-0.25359,2.33,2.57,2.71,2.81,3.19,3.07,3.07,3.85,3.2,3.92,4.01,3.92,3.79,3.84,3.69,3280,13.666667,61115.467667,212.272461,971.938293,-184.144531,1.23844028388557,2.38275858281648,2.22156936087383,10.153821,792.011902,163.526291,118.494064,1180.504883,-10.022106,"CRUZEXT"
174,16,58,35.492,4578.56,0.599567,-0.167581,0.680216,-0.386966,-0.92531,0.32738,-0.02618,4575.44,0.639949,-0.198914,0.560302,-0.486786,-0.95454,0.42737,-0.26854,2.33,2.57,2.71,2.81,3.19,3.08,3.07,3.85,3.2,3.92,4,3.92,3.79,3.84,3.69,3286,13.691667,61115.492667,210.575989,975.213013,-186.975418,1.24049020721328,2.36745528756173,2.23866364411997,9.951299,791.750305,163.771484,117.398102,1180.633179,-9.052299,"CRUZEXT"
175,16,58,35.498,4578.58,0.599333,-0.16782,0.680579,-0.386585,-0.92437,0.32809,-0.02633,4575.46,0.631593,-0.194862,0.559554,-0.500019,-0.9589,0.42742,-0.28402,2.33,2.57,2.71,2.81,3.19,3.07,3.07,3.85,3.2,3.92,4,3.93,3.79,3.84,3.69,3288,13.7,61115.501,210.111786,976.365417,-188.028854,1.24086569553634,2.36171735162005,2.24479093473081,9.883708,791.653625,163.866821,117.016708,1180.671997,-8.689916,"CRUZEXT"
176,16,58,35.553,4578.6,0.599088,-0.16804,0.680954,-0.386209,-0.93002,0.32715,-0.02155,4575.48,0.622328,-0.189539,0.559313,-0.513761,-0.97988,0.43258,-0.29769,2.33,2.57,2.71,2.81,3.19,3.07,3.07,3.85,3.2,3.92,4,3.92,3.79,3.84,3.7,3301,13.754167,61115.555167,206.835114,986.115906,-195.269516,1.24294170405026,2.3181495812841,2.2903201350186,9.471965,791.079834,164.501373,114.47805,1181.06189,-6.252848,"CRUZEXT"
177,16,58,35.559,4578.62,0.598802,-0.168265,0.681356,-0.385847,-0.93272,0.32307,-0.0226,4575.5,0.611942,-0.182929,0.559781,-0.527929,-0.96005,0.44102,-0.30225,2.33,2.57,2.71,2.81,3.19,3.07,3.07,3.85,3.2,3.92,4,3.93,3.79,3.84,3.69,3302,13.758333,61115.559333,206.554916,986.998413,-195.849335,1.2431460026478,2.31442420974019,2.29418977699099,9.442374,791.041016,164.550751,114.276726,1181.110107,-6.047463,"CRUZEXT"
178,16,58,35.575,4578.64,0.598516,-0.16848,0.681767,-0.385469,-0.93433,0.32415,-0.01664,4575.52,0.600576,-0.175778,0.560742,-0.542198,-0.9472,0.45204,-0.30008,2.33,2.57,2.71,2.81,3.19,3.08,3.07,3.85,3.2,3.92,4.01,3.93,3.79,3.84,3.69,3306,13.775,61115.576,203.466599,987.383362,-200.96225,1.25509259006171,2.30372703038104,2.31210735966604,9.332649,790.913391,164.722549,113.456436,1181.342041,-5.204781,"CRUZEXT"
179,16,58,35.58,4578.66,0.598262,-0.168686,0.682168,-0.385064,-0.92418,0.32544,-0.01899,4575.54,0.588244,-0.168039,0.562387,-0.556284,-0.91781,0.4613,-0.30294,2.33,2.57,2.71,2.81,3.19,3.08,3.07,3.85,3.2,3.92,4,3.93,3.79,3.84,3.7,3307,13.779167,61115.580167,203.466599,987.383362,-200.96225,1.25467017187734,2.30322504354116,2.31235803748468,9.311234,790.876038,164.763992,113.268173,1181.388428,-4.995053,"CRUZEXT"
180,16,58,35.607,4578.68,0.598012,-0.168879,0.68262,-0.384567,-0.92313,0.32795,-0.0155,4575.56,0.574852,-0.159247,0.565285,-0.56977,-0.90935,0.50675,-0.3092,2.33,2.57,2.71,2.81,3.19,3.07,3.07,3.85,3.2,3.92,4.01,3.93,3.79,3.84,3.69,3314,13.808333,61115.609333,203.466599,987.383362,-200.96225,1.25191242243697,2.2999418198115,2.31399188046836,9.195462,790.625183,165.047256,111.988899,1181.782349,-3.525265,"CRUZEXT"
181,16,58,35.612,4578.7,0.597815,-0.169002,0.683069,-0.384022,-0.92798,0.3272,-0.01303,4575.58,0.561142,-0.150614,0.56793,-0.583001,-0.87994,0.52342,-0.31923,2.33,2.56,2.71,2.81,3.18,3.07,3.07,3.85,3.2,3.92,4,3.92,3.79,3.84,3.69,3315,13.8125,61115.6135,203.466599,987.383362,-200.96225,1.25154041774363,2.29950149212431,2.31420856593738,9.18192,790.590332,165.086487,111.80896,1181.849609,-3.312952,"CRUZEXT"
182,16,58,35.668,4578.72,0.597633,-0.16911,0.683536,-0.383426,-0.9329,0.32652,-0.01297,4575.6,0.547074,-0.142163,0.570552,-0.595794,-0.86829,0.5505,-0.31412,2.33,2.56,2.71,2.81,3.19,3.07,3.07,3.85,3.2,3.92,4,3.93,3.79,3.84,3.7,3329,13.870833,61115.671833,203.466599,987.383362,-200.96225,1.24804912049122,2.29408357577231,2.31750841569191,9.079799,790.178589,165.511047,109.806328,1182.826416,-0.387857,"CRUZEXT"
183,16,58,35.673,4578.74,0.597473,-0.169203,0.68401,-0.382789,-0.93363,0.32485,-0.00811,4575.62,0.532641,-0.134047,0.572991,-0.608282,-0.81627,0.52895,-0.29837,2.33,2.56,2.71,2.81,3.19,3.08,3.07,3.85,3.2,3.92,4,3.93,3.79,3.84,3.7,3330,13.875,61115.676,203.466599,987.383362,-200.96225,1.24781152378379,2.2937006097402,2.31774613765568,9.079647,790.155457,165.53508,109.658058,1182.911987,-0.161388,"CRUZEXT"
184,16,58,35.691,4578.76,0.597275,-0.169281,0.684569,-0.382063,-0.93321,0.32279,-0.00568,4575.64,0.518358,-0.126614,0.575081,-0.620126,-0.80556,0.53359,-0.28453,2.33,2.56,2.71,2.81,3.19,3.08,3.07,3.85,3.2,3.92,4,3.93,3.79,3.84,3.7,3334,13.891667,61115.692667,203.466599,987.383362,-200.96225,1.2473371433626,2.29241090756939,2.31874269578087,9.075304,790.075806,165.595139,109.254997,1183.187378,0.63263,"CRUZEXT"
185,16,58,35.696,4578.78,0.597112,-0.169339,0.685105,-0.381331,-0.93323,0.32035,-0.0023,4575.66,0.504146,-0.119476,0.57742,-0.63099,-0.77396,0.53727,-0.28176,2.33,2.56,2.71,2.81,3.19,3.08,3.07,3.85,3.2,3.92,4,3.92,3.79,3.84,3.7,3335,13.895833,61115.696833,203.466599,987.383362,-200.96225,1.24724902735222,2.29211170311875,2.31898702182918,9.081139,790.055664,165.612656,109.166557,1183.253052,0.82197,"CRUZEXT"
186,16,58,35.748,4578.8,0.596891,-0.169487,0.685619,-0.380685,-0.93399,0.32033,-0.0038,4575.68,0.4904,-0.112934,0.579779,-0.640788,-0.74376,0.53606,-0.28631,2.32,2.56,2.71,2.81,3.19,3.08,3.07,3.85,3.2,3.92,4,3.93,3.79,3.84,3.69,3348,13.95,61115.751,203.466599,987.383362,-200.96225,1.24588433631125,2.28878454640547,2.32146765048732,9.134414,789.843811,165.876572,107.964584,1184.197266,3.109151,"CRUZEXT"
187,16,58,35.753,4578.82,0.596656,-0.169743,0.686066,-0.380135,-0.93483,0.32005,0.00155,4575.7,0.476948,-0.106696,0.582452,-0.649527,-0.72151,0.55092,-0.29592,2.32,2.56,2.71,2.81,3.19,3.07,3.07,3.85,3.2,3.92,4,3.93,3.79,3.84,3.7,3349,13.954167,61115.755167,203.466599,987.383362,-200.96225,1.24573299009797,2.28845261573917,2.32170553414082,9.136586,789.828918,165.902634,107.857666,1184.254272,3.297937,"CRUZEXT"
188,16,58,35.767,4578.84,0.59639,-0.169972,0.68655,-0.379575,-0.93532,0.31667,0.00126,4575.72,0.463751,-0.100749,0.584983,-0.657708,-0.6909,0.57758,-0.29998,2.32,2.56,2.71,2.81,3.19,3.07,3.07,3.85,3.2,3.92,4,3.93,3.79,3.84,3.7,3352,13.966667,61115.767667,203.466599,987.383362,-200.96225,1.2453876705822,2.28763857698571,2.32230431020841,9.169413,789.788574,165.981094,107.587006,1184.425537,3.797769,"CRUZEXT"
189,16,58,35.788,4578.86,0.59616,-0.170121,0.687071,-0.378928,-0.93966,0.3128,0.00696,4575.74,0.450617,-0.094391,0.587837,-0.665193,-0.67861,0.59893,-0.30162,2.32,2.56,2.71,2.81,3.19,3.08,3.07,3.85,3.2,3.92,4,3.92,3.79,3.84,3.7,3357,13.9875,61115.7885,203.466599,987.383362,-200.96225,1.24481633514388,2.28622121806833,2.32336405302649,9.205072,789.717651,166.140991,107.156433,1184.654297,4.602393,"CRUZEXT"
190,16,58,35.793,4578.88,0.595931,-0.170328,0.687538,-0.378346,-0.93802,0.31151,0.00616,4575.76,0.437669,-0.088095,0.591525,-0.671404,-0.65982,0.61558,-0.30376,2.32,2.56,2.71,2.81,3.19,3.08,3.07,3.85,3.2,3.92,4,3.93,3.79,3.84,3.7,3359,13.995833,61115.796833,203.466599,987.383362,-200.96225,1.24459802654793,2.28565784544095,2.32379028439323,9.209733,789.700012,166.213516,106.98671,1184.746338,4.925406,"CRUZEXT"
191,16,58,35.844,4578.9,0.595713,-0.170553,0.687979,-0.377786,-0.93778,0.31466,0.00637,4575.78,0.424888,-0.082336,0.594787,-0.677435,-0.64488,0.65555,-0.29679,2.32,2.56,2.71,2.81,3.19,3.08,3.07,3.85,3.2,3.92,4.01,3.92,3.79,3.84,3.7,3371,14.045833,61115.846833,203.466599,987.383362,-200.96225,1.24351918655823,2.28266487146764,2.32610088096887,9.262566,789.599365,166.679016,106.063164,1185.316528,6.745856,"CRUZEXT"
192,16,58,35.849,4578.92,0.595492,-0.170887,0.688312,-0.377377,-0.93727,0.31681,0.00549,4575.8,0.412473,-0.077066,0.597689,-0.683151,-0.62669,0.68642,-0.28993,2.32,2.56,2.71,2.81,3.19,3.08,3.07,3.85,3.2,3.92,4,3.93,3.79,3.84,3.7,3372,14.05,61115.851,203.466599,987.383362,-200.96225,1.24342217008171,2.28242824450566,2.32627618956454,9.268147,789.594666,166.728165,105.988823,1185.356689,6.883688,"CRUZEXT"
193,16,58,35.867,4578.94,0.595262,-0.171223,0.688606,-0.37705,-0.9333,0.31656,0.00549,4575.82,0.400386,-0.072005,0.60026,-0.688618,-0.5998,0.71941,-0.27192,2.32,2.56,2.71,2.8,3.19,3.08,3.07,3.85,3.2,3.92,4,3.93,3.79,3.84,3.7,3376,14.066667,61115.867667,203.466599,987.383362,-200.96225,1.24318165236921,2.28168173674215,2.32686903434246,9.296663,789.577881,166.880447,105.743622,1185.54248,7.390071,"CRUZEXT"
194,16,58,35.892,4578.96,0.595029,-0.171538,0.688932,-0.37668,-0.93232,0.31695,0.00197,4575.84,0.388606,-0.067673,0.602453,-0.69387,-0.57854,0.72294,-0.27026,2.32,2.56,2.71,2.8,3.19,3.08,3.07,3.85,3.2,3.92,4,3.93,3.79,3.84,3.7,3382,14.091667,61115.892667,203.466599,987.383362,-200.96225,1.24281485182183,2.28065082135301,2.32766608507949,9.342015,789.553406,167.113358,105.387558,1185.812134,8.100285,"CRUZEXT"
195,16,58,35.897,4578.98,0.594741,-0.172063,0.68909,-0.376607,-0.9312,0.32605,0.00548,4575.86,0.37717,-0.06366,0.604626,-0.698654,-0.54421,0.72658,-0.26069,2.32,2.56,2.71,2.8,3.19,3.08,3.07,3.85,3.2,3.92,4,3.93,3.79,3.84,3.69,3384,14.1,61115.901,203.466599,987.383362,-200.96225,1.24268948493772,2.28026222569864,2.32797425061427,9.36991,789.540344,167.186478,105.268921,1185.88916,8.344338,"CRUZEXT"
196,16,58,35.928,4579,0.594393,-0.172602,0.689225,-0.376662,-0.93162,0.31993,0.00396,4575.88,0.366038,-0.059917,0.606902,-0.70292,-0.51118,0.73122,-0.2606,2.32,2.55,2.71,2.8,3.19,3.08,3.07,3.85,3.2,3.92,4,3.93,3.79,3.84,3.7,3391,14.129167,61115.930167,203.466599,987.383362,-200.96225,1.24262211489499,2.27935291238984,2.32883319184233,9.469496,789.515442,167.396042,105.026207,1186.129639,9.010743,"CRUZEXT"
197,16,58,35.934,4579.02,0.594118,-0.173099,0.689365,-0.376611,-0.93483,0.31534,0.00096,4575.9,0.354612,-0.056358,0.609187,-0.707082,-0.48357,0.77968,-0.24786,2.32,2.55,2.71,2.8,3.18,3.08,3.07,3.85,3.2,3.92,4,3.93,3.79,3.84,3.7,3392,14.133333,61115.934333,203.466599,987.383362,-200.96225,1.24263087694382,2.27927369034941,2.3289169509918,9.486929,789.507996,167.412903,104.999565,1186.170166,9.091557,"CRUZEXT"
198,16,58,35.969,4579.04,0.593881,-0.173592,0.689465,-0.376574,-0.93558,0.32356,0.00354,4575.92,0.343178,-0.053313,0.611076,-0.711318,-0.50863,0.82408,-0.24334,2.32,2.55,2.71,2.81,3.19,3.08,3.07,3.85,3.2,3.92,4,3.93,3.79,3.84,3.7,3401,14.170833,61115.971833,203.466599,987.383362,-200.96225,1.2428445243432,2.27914658100773,2.32917326893015,9.628003,789.511414,167.490402,104.826279,1186.615479,9.650335,"CRUZEXT"
199,16,58,35.974,4579.06,0.593661,-0.17411,0.689502,-0.376616,-0.93539,0.31564,0.00907,4575.94,0.33231,-0.050583,0.612258,-0.715648,-0.51587,0.85343,-0.25058,2.32,2.55,2.71,2.8,3.19,3.08,3.07,3.85,3.2,3.92,4.01,3.93,3.79,3.84,3.7,3402,14.175,61115.976,203.466599,987.383362,-200.96225,1.24289108798041,2.27907925338377,2.32926833268117,9.639606,789.516418,167.487762,104.816193,1186.647461,9.721839,"CRUZEXT"
200,16,58,36.01,4579.08,0.593463,-0.174607,0.689506,-0.37669,-0.93684,0.3118,0.00853,4575.96,0.321097,-0.047803,0.612479,-0.72075,-0.44362,0.81707,-0.26161,2.32,2.55,2.71,2.8,3.19,3.08,3.07,3.85,3.2,3.92,4,3.93,3.79,3.84,3.7,3411,14.2125,61116.0135,203.466599,987.383362,-200.96225,1.24352917200783,2.27889243938105,2.32984252060275,9.820889,789.611694,167.438446,104.787003,1187.037476,10.308172,"CRUZEXT"
201,16,58,36.014,4579.1,0.593263,-0.175066,0.689531,-0.376747,-0.9371,0.31212,0.01102,4575.98,0.309848,-0.045241,0.612679,-0.725653,-0.47487,0.85531,-0.26641,2.32,2.55,2.71,2.8,3.19,3.08,3.07,3.85,3.2,3.92,4,3.93,3.79,3.84,3.7,3412,14.216667,61116.017667,203.466599,987.383362,-200.96225,1.24362018224051,2.27893691623951,2.32985398938777,9.849906,789.618286,167.429077,104.795181,1187.084839,10.349869,"CRUZEXT"
202,16,58,36.072,4579.12,0.593139,-0.175374,0.689597,-0.376678,-0.93574,0.30453,0.01029,4576,0.298218,-0.042731,0.613002,-0.73039,-0.46552,0.87188,-0.24763,2.32,2.55,2.71,2.81,3.19,3.08,3.07,3.85,3.2,3.92,4,3.93,3.79,3.84,3.7,3426,14.275,61116.076,203.466599,987.383362,-200.96225,1.24550758282445,2.27925212339051,2.33068957369758,10.206279,789.858276,167.365952,105.060104,1187.736572,11.148084,"CRUZEXT"
203,16,58,36.077,4579.14,0.593098,-0.175526,0.689708,-0.376468,-0.93909,0.31367,0.01681,4576.02,0.286844,-0.04025,0.612407,-0.735567,-0.40651,0.8501,-0.24386,2.32,2.55,2.71,2.8,3.19,3.08,3.07,3.85,3.2,3.92,4.01,3.92,3.79,3.84,3.7,3427,14.279167,61116.080167,203.466599,987.383362,-200.96225,1.24567553322909,2.27931217557176,2.33073198171309,10.236849,789.878784,167.365936,105.087898,1187.793823,11.203294,"CRUZEXT"
204,16,58,36.082,4579.16,0.593072,-0.175728,0.689824,-0.376202,-0.93841,0.30453,0.01843,4576.04,0.275789,-0.037814,0.611636,-0.740548,-0.4063,0.84283,-0.2507,2.32,2.55,2.71,2.8,3.19,3.08,3.07,3.85,3.21,3.92,4,3.93,3.79,3.84,3.7,3428,14.283333,61116.084333,203.466599,987.383362,-200.96225,1.24583598066605,2.2793339172086,2.33080770537003,10.275227,789.892639,167.361038,105.10997,1187.849365,11.273619,"CRUZEXT"
205,16,58,36.107,4579.18,0.593154,-0.175821,0.689875,-0.375937,-0.93792,0.30425,0.01549,4576.06,0.265568,-0.035393,0.611036,-0.744887,-0.40283,0.82823,-0.26399,2.32,2.55,2.71,2.8,3.18,3.08,3.07,3.85,3.2,3.92,4,3.92,3.79,3.84,3.7,3434,14.308333,61116.109333,203.466599,987.383362,-200.96225,1.24664223375044,2.27954249507446,2.33108930402345,10.474069,790.028748,167.352158,105.216095,1188.162354,11.61622,"CRUZEXT"
206,16,58,36.132,4579.2,0.593329,-0.175674,0.690082,-0.375348,-0.94296,0.30568,0.0124,4576.08,0.25498,-0.032356,0.610758,-0.748941,-0.40974,0.86485,-0.24458,2.32,2.55,2.71,2.8,3.19,3.08,3.07,3.85,3.21,3.92,4,3.93,3.79,3.84,3.7,3440,14.333333,61116.134333,203.466599,987.383362,-200.96225,1.24729748851912,2.27975878551155,2.3312710964098,10.667677,790.15918,167.35672,105.283737,1188.466919,11.925676,"CRUZEXT"
207,16,58,36.138,4579.22,0.593545,-0.175521,0.690149,-0.374955,-0.93921,0.31163,0.01929,4576.1,0.245378,-0.029479,0.610329,-0.752608,-0.3614,0.88618,-0.26704,2.32,2.55,2.71,2.8,3.19,3.08,3.07,3.85,3.2,3.92,4,3.93,3.79,3.84,3.7,3441,14.3375,61116.1385,203.466599,987.383362,-200.96225,1.24735326782212,2.27977149250407,2.33129218467751,10.695518,790.190491,167.359802,105.278702,1188.513672,11.976739,"CRUZEXT"
208,16,58,36.167,4579.24,0.593764,-0.175396,0.690197,-0.374579,-0.93724,0.31112,0.01135,4576.12,0.23555,-0.026668,0.60961,-0.756426,-0.34141,0.90737,-0.25497,2.32,2.55,2.71,2.8,3.19,3.08,3.07,3.85,3.21,3.92,4,3.93,3.79,3.84,3.7,3448,14.366667,61116.167667,203.466599,987.383362,-200.96225,1.24795080822034,2.27996151475449,2.33146443970077,10.910844,790.345398,167.391785,105.294357,1188.885376,12.361633,"CRUZEXT"
209,16,58,36.192,4579.26,0.594002,-0.175201,0.690214,-0.37426,-0.93642,0.3143,0.0142,4576.14,0.226025,-0.023801,0.608822,-0.760054,-0.33402,0.91804,-0.26032,2.32,2.55,2.71,2.8,3.19,3.08,3.06,3.85,3.21,3.92,4,3.93,3.79,3.84,3.7,3454,14.391667,61116.192667,203.466599,987.383362,-200.96225,1.24829143467458,2.28014298651103,2.33148997875317,11.085578,790.48053,167.40184,105.244041,1189.236816,12.694244,"CRUZEXT"
210,16,58,36.197,4579.28,0.594251,-0.175133,0.690156,-0.374005,-0.93755,0.31597,0.01182,4576.16,0.216763,-0.020942,0.607942,-0.763533,-0.30852,0.88815,-0.26545,2.32,2.55,2.71,2.8,3.19,3.08,3.07,3.85,3.2,3.92,4,3.93,3.79,3.84,3.71,3456,14.4,61116.201,203.466599,987.383362,-200.96225,1.24835002222831,2.28018570158128,2.33148296847145,11.141828,790.527344,167.404449,105.215729,1189.340454,12.791731,"CRUZEXT"
211,16,58,36.248,4579.3,0.594504,-0.175099,0.690016,-0.373876,-0.93708,0.31374,0.01172,4576.18,0.207742,-0.017899,0.607272,-0.766644,-0.2915,0.88733,-0.26318,2.32,2.55,2.71,2.8,3.19,3.08,3.07,3.85,3.21,3.92,4,3.93,3.79,3.84,3.7,3468,14.45,61116.251,203.466599,987.383362,-200.96225,1.24887456883623,2.28026585023545,2.33171912040399,11.421968,790.755127,167.431412,105.059593,1189.998413,13.521303,"CRUZEXT"
212,16,58,36.253,4579.32,0.59474,-0.175149,0.689824,-0.37383,-0.93722,0.30828,0.00821,4576.2,0.199038,-0.014841,0.606971,-0.769253,-0.27042,0.87509,-0.25778,2.32,2.55,2.71,2.8,3.18,3.08,3.07,3.85,3.21,3.92,4,3.92,3.79,3.84,3.71,3469,14.454167,61116.255167,203.466599,987.383362,-200.96225,1.24891955230556,2.28029606842111,2.33171624717803,11.441486,790.771057,167.434326,105.047638,1190.057495,13.575648,"CRUZEXT"
213,16,58,36.27,4579.34,0.594973,-0.17519,0.68961,-0.373838,-0.93399,0.31002,0.00582,4576.22,0.190741,-0.011862,0.607073,-0.771323,-0.2533,0.88984,-0.27628,2.32,2.56,2.71,2.81,3.19,3.08,3.07,3.85,3.21,3.92,4,3.93,3.79,3.84,3.7,3473,14.470833,61116.271833,203.466599,987.383362,-200.96225,1.24907827263599,2.2804131626723,2.33169571680444,11.524199,790.839233,167.424759,104.999069,1190.281738,13.779104,"CRUZEXT"
214,16,58,36.289,4579.36,0.595178,-0.175218,0.689348,-0.37398,-0.93354,0.31027,0.00591,4576.24,0.182881,-0.008813,0.607478,-0.772947,-0.23844,0.89439,-0.28233,2.32,2.56,2.71,2.8,3.19,3.08,3.07,3.85,3.21,3.92,4,3.93,3.79,3.84,3.7,3478,14.491667,61116.292667,203.466599,987.383362,-200.96225,1.24925165229818,2.28054922881481,2.33166516570115,11.603931,790.924438,167.416962,104.929008,1190.563965,14.036845,"CRUZEXT"
215,16,58,36.294,4579.38,0.595401,-0.175296,0.689102,-0.374042,-0.93506,0.30661,0.00882,4576.26,0.175228,-0.005692,0.607798,-0.774496,-0.20783,0.91603,-0.2745,2.32,2.56,2.71,2.8,3.19,3.08,3.07,3.85,3.21,3.93,4,3.93,3.79,3.84,3.71,3479,14.495833,61116.296833,203.466599,987.383362,-200.96225,1.2492854621168,2.28056858738302,2.33166630340783,11.61573,790.942871,167.418869,104.915421,1190.617188,14.088575,"CRUZEXT"
216,16,58,36.345,4579.4,0.595624,-0.175369,0.688833,-0.374147,-0.93731,0.30488,0.00338,4576.28,0.167758,-0.002777,0.607723,-0.776223,-0.23438,0.94155,-0.27869,2.32,2.56,2.71,2.8,3.19,3.08,3.07,3.85,3.21,3.92,4,3.93,3.79,3.84,3.71,3491,14.545833,61116.346833,203.466599,987.383362,-200.96225,1.2496303122603,2.28094318586769,2.33150244469486,11.725079,791.104614,167.358505,104.754547,1191.248779,14.625776,"CRUZEXT"
217,16,58,36.35,4579.42,0.595777,-0.175492,0.688591,-0.374294,-0.93759,0.30535,0.00117,4576.3,0.160558,0.000338,0.606896,-0.778395,-0.20164,0.94088,-0.27715,2.32,2.56,2.71,2.8,3.19,3.08,3.07,3.85,3.21,3.92,4,3.93,3.79,3.84,3.71,3492,14.55,61116.351,203.466599,987.383362,-200.96225,1.24964607556946,2.28100713508981,2.33144859499503,11.736567,791.113464,167.348114,104.737961,1191.307861,14.660017,"CRUZEXT"
218,16,58,36.368,4579.44,0.595935,-0.175635,0.688319,-0.374476,-0.93548,0.30491,0.00316,4576.32,0.152649,0.004017,0.60557,-0.781004,-0.16378,0.93529,-0.27394,2.32,2.56,2.71,2.8,3.19,3.08,3.07,3.85,3.2,3.92,4,3.93,3.79,3.84,3.71,3497,14.570833,61116.371833,203.466599,987.383362,-200.96225,1.24982115542895,2.28142536037808,2.33113953517143,11.772896,791.18512,167.285934,104.650787,1191.694702,14.893916,"CRUZEXT"
219,16,58,36.374,4579.46,0.596092,-0.175733,0.688011,-0.374743,-0.93694,0.30744,0.00098,4576.34,0.145952,0.00695,0.60403,-0.783452,-0.21505,0.9184,-0.27689,2.32,2.56,2.71,2.8,3.19,3.08,3.07,3.85,3.21,3.92,4,3.93,3.79,3.84,3.71,3498,14.575,61116.376,203.466599,987.383362,-200.96225,1.24982701674721,2.28150343413814,2.33106574840334,11.775365,791.203003,167.270203,104.618988,1191.782593,14.950433,"CRUZEXT"
220,16,58,36.407,4579.48,0.59622,-0.175852,0.687791,-0.374888,-0.93656,0.30465,0.00094,4576.36,0.13958,0.009768,0.602605,-0.785678,-0.15843,0.89711,-0.28437,2.32,2.56,2.71,2.81,3.19,3.08,3.07,3.85,3.21,3.92,4,3.93,3.79,3.84,3.71,3506,14.608333,61116.409333,203.466599,987.383362,-200.96225,1.25025704681845,2.28198843804475,2.33084315944509,11.824887,791.321106,167.091324,104.457436,1192.497314,15.532732,"CRUZEXT"
221,16,58,36.432,4579.5,0.596381,-0.175918,0.68752,-0.375098,-0.93471,0.3039,0.00021,4576.38,0.133832,0.012488,0.601538,-0.787455,-0.16371,0.90057,-0.28245,2.32,2.56,2.71,2.8,3.19,3.08,3.07,3.86,3.21,3.92,4,3.94,3.79,3.84,3.71,3512,14.633333,61116.434333,203.466599,987.383362,-200.96225,1.25059649522502,2.28220289378085,2.33083396079446,11.857359,791.415161,166.960892,104.274506,1193.137817,16.152637,"CRUZEXT"
222,16,58,36.438,4579.52,0.596524,-0.175969,0.687324,-0.375206,-0.93323,0.30307,0.00014,4576.4,0.128781,0.014899,0.600643,-0.788937,-0.15946,0.9168,-0.27998,2.32,2.56,2.71,2.8,3.19,3.08,3.07,3.85,3.21,3.92,4,3.94,3.8,3.83,3.71,3513,14.6375,61116.4385,203.466599,987.383362,-200.96225,1.25062356647788,2.28224939324707,2.3308041057056,11.854337,791.437561,166.947937,104.234879,1193.247925,16.250284,"CRUZEXT"
223,16,58,36.491,4579.54,0.596682,-0.176028,0.687103,-0.375332,-0.9371,0.3054,0.00235,4576.42,0.123636,0.016833,0.599523,-0.790572,-0.11665,0.9266,-0.27412,2.32,2.56,2.71,2.8,3.19,3.08,3.07,3.85,3.21,3.92,3.99,3.94,3.79,3.83,3.71,3526,14.691667,61116.492667,203.466599,987.383362,-200.96225,1.25080845474341,2.28197221357088,2.33118917553945,11.889184,791.551331,166.878021,103.772987,1194.255005,17.471535,"CRUZEXT"
224,16,58,36.497,4579.56,0.596872,-0.176024,0.686881,-0.375437,-0.93642,0.30551,0.00211,4576.44,0.11824,0.01881,0.59817,-0.792375,-0.09548,0.9258,-0.26965,2.32,2.56,2.71,2.8,3.19,3.08,3.07,3.85,3.21,3.92,3.99,3.94,3.8,3.83,3.72,3528,14.7,61116.501,203.466599,987.383362,-200.96225,1.2508045026764,2.28188992766688,2.33126829400288,11.884896,791.57489,166.903625,103.699265,1194.385742,17.648638,"CRUZEXT"
225,16,58,36.511,4579.58,0.597125,-0.175946,0.686714,-0.375377,-0.93958,0.29993,0.00288,4576.46,0.112715,0.020765,0.597103,-0.793935,-0.08236,0.93297,-0.25063,2.32,2.56,2.71,2.8,3.19,3.08,3.07,3.85,3.21,3.93,3.99,3.95,3.8,3.83,3.72,3531,14.7125,61116.5135,203.466599,987.383362,-200.96225,1.25084575331758,2.28178261913538,2.33139921265703,11.871194,791.599731,166.939575,103.610123,1194.570679,17.90132,"CRUZEXT"
226,16,58,36.528,4579.6,0.597341,-0.175854,0.686618,-0.375253,-0.94153,0.30293,0.0027,4576.48,0.107021,0.022516,0.596415,-0.795191,-0.08468,0.9337,-0.25982,2.32,2.56,2.71,2.8,3.19,3.08,3.07,3.85,3.21,3.92,3.99,3.95,3.8,3.83,3.72,3535,14.729167,61116.530167,203.466599,987.383362,-200.96225,1.25073275875404,2.2816603258554,2.33145273644763,11.852104,791.624146,166.991241,103.443924,1194.815308,18.203182,"CRUZEXT"
227,16,58,36.533,4579.62,0.597613,-0.175709,0.6865,-0.375103,-0.93773,0.3064,0.00174,4576.5,0.101474,0.024031,0.595882,-0.796273,-0.0896,0.924,-0.27886,2.32,2.56,2.71,2.8,3.19,3.08,3.07,3.85,3.21,3.93,3.99,3.96,3.81,3.83,3.72,3536,14.733333,61116.534333,203.466599,987.383362,-200.96225,1.25070856914172,2.28165948064169,2.33143910673284,11.853577,791.628662,167.006012,103.402855,1194.885132,18.274031,"CRUZEXT"
228,16,58,36.568,4579.64,0.597893,-0.175556,0.686432,-0.374853,-0.93312,0.30924,-0.00052,4576.52,0.096038,0.025373,0.595017,-0.797551,-0.06888,0.9137,-0.2853,2.32,2.56,2.71,2.8,3.19,3.08,3.07,3.85,3.21,3.93,3.98,3.96,3.81,3.83,3.73,3545,14.770833,61116.571833,203.466599,987.383362,-200.96225,1.25039074355316,2.28119762415436,2.33170620336508,11.783041,791.6922,167.133179,102.999947,1195.409424,19.007666,"CRUZEXT"
229,16,58,36.573,4579.66,0.598099,-0.17544,0.686355,-0.374722,-0.93279,0.31034,-0.00579,4576.54,0.090855,0.026702,0.593707,-0.79909,-0.07296,0.9244,-0.27959,2.32,2.56,2.71,2.8,3.19,3.08,3.07,3.85,3.21,3.92,3.99,3.96,3.82,3.83,3.73,3546,14.775,61116.576,203.466599,987.383362,-200.96225,1.25032910374491,2.28111296281766,2.33175311504791,11.778433,791.690491,167.150558,102.947983,1195.457886,19.091408,"CRUZEXT"
230,16,58,36.624,4579.68,0.598244,-0.175476,0.686291,-0.374589,-0.92896,0.31234,-0.00399,4576.56,0.08575,0.027916,0.592419,-0.800567,-0.05035,0.93937,-0.2797,2.32,2.56,2.71,2.8,3.19,3.08,3.06,3.85,3.21,3.93,3.99,3.97,3.82,3.83,3.73,3558,14.825,61116.626,203.466599,987.383362,-200.96225,1.24985708239161,2.28005026446575,2.33252215362735,11.704564,791.713562,167.318649,102.412666,1196.010742,20.12751,"CRUZEXT"
231,16,58,36.629,4579.7,0.598266,-0.175382,0.686204,-0.374757,-0.92955,0.31355,-0.00677,4576.58,0.080639,0.028861,0.591302,-0.801889,-0.06759,0.94291,-0.30029,2.32,2.56,2.71,2.8,3.19,3.08,3.07,3.85,3.21,3.93,4,3.97,3.82,3.82,3.73,3559,14.829167,61116.630167,203.466599,987.383362,-200.96225,1.24982138219583,2.27995289474404,2.33259710395459,11.69726,791.724976,167.334534,102.369469,1196.053833,20.215647,"CRUZEXT"
232,16,58,36.647,4579.72,0.598335,-0.175542,0.686121,-0.374724,-0.93293,0.31184,-0.00459,4576.6,0.075266,0.029802,0.590173,-0.803208,-0.00459,0.92189,-0.29276,2.32,2.56,2.71,2.8,3.19,3.08,3.07,3.85,3.21,3.93,4.01,3.98,3.83,3.82,3.73,3564,14.85,61116.651,203.466599,987.383362,-200.96225,1.24968146267761,2.27953998638699,2.33292175826036,11.669634,791.73407,167.395813,102.185524,1196.244995,20.600239,"CRUZEXT"
233,16,58,36.672,4579.74,0.598435,-0.175674,0.686023,-0.374682,-0.9375,0.30831,-0.00584,4576.62,0.070152,0.030925,0.589227,-0.804322,-0.0271,0.94305,-0.28645,2.32,2.56,2.71,2.8,3.19,3.08,3.06,3.85,3.21,3.93,4.02,3.99,3.84,3.82,3.73,3570,14.875,61116.676,203.466599,987.383362,-200.96225,1.24959135856652,2.27905538815293,2.33334711182066,11.650949,791.747131,167.479568,101.990944,1196.471313,21.064663,"CRUZEXT"
234,16,58,36.677,4579.76,0.598539,-0.175747,0.685914,-0.374682,-0.93689,0.30582,-0.00359,4576.64,0.064879,0.031915,0.588595,-0.805188,-0.03552,0.95374,-0.29785,2.32,2.56,2.71,2.8,3.19,3.08,3.06,3.85,3.21,3.93,4.03,4,3.85,3.82,3.73,3571,14.879167,61116.680167,203.466599,987.383362,-200.96225,1.24961635987758,2.2790100428632,2.33340695897402,11.653225,791.744263,167.494751,101.97258,1196.513794,21.135443,"CRUZEXT"
235,16,58,36.731,4579.78,0.598666,-0.175866,0.685794,-0.374641,-0.93492,0.30545,-0.00272,4576.66,0.059559,0.033121,0.588451,-0.805656,-0.01742,0.93717,-0.31133,2.32,2.56,2.71,2.8,3.19,3.08,3.06,3.85,3.21,3.93,4.04,4.01,3.85,3.82,3.73,3584,14.933333,61116.734333,203.466599,987.383362,-200.96225,1.24932130458325,2.2780562494475,2.33417320596403,11.639078,791.768921,167.681061,101.555984,1196.952393,22.028109,"CRUZEXT"
236,16,58,36.736,4579.8,0.598788,-0.175975,0.68564,-0.374679,-0.9356,0.30453,-0.00119,4576.68,0.054589,0.034362,0.588316,-0.806054,-0.0076,0.93126,-0.31077,2.32,2.56,2.71,2.8,3.19,3.08,3.06,3.85,3.2,3.93,4.05,4.02,3.86,3.82,3.73,3585,14.9375,61116.7385,203.466599,987.383362,-200.96225,1.24923275029792,2.27795611175185,2.33421906636599,11.634733,791.777039,167.70079,101.502274,1196.982544,22.097012,"CRUZEXT"
237,16,58,36.741,4579.82,0.598898,-0.176106,0.685538,-0.374628,-0.93492,0.30244,-0.00324,4576.7,0.049869,0.035867,0.588052,-0.806487,-0.0027,0.93239,-0.31998,2.32,2.56,2.71,2.81,3.19,3.08,3.06,3.86,3.19,3.94,4.06,4.02,3.87,3.81,3.73,3586,14.941667,61116.742667,203.466599,987.383362,-200.96225,1.24919374905023,2.27789472275424,2.33425635040148,11.636336,791.774414,167.717422,101.46537,1197.018799,22.160315,"CRUZEXT"
238,16,58,36.786,4579.84,0.598985,-0.176229,0.685489,-0.374519,-0.93813,0.3013,0.00164,4576.72,0.045222,0.037489,0.588117,-0.80664,0.00452,0.92843,-0.32584,2.32,2.56,2.71,2.8,3.19,3.08,3.06,3.86,3.18,3.94,4.07,4.03,3.88,3.81,3.73,3597,14.9875,61116.7885,203.466599,987.383362,-200.96225,1.24862269908374,2.27701699417171,2.33478095519736,11.621321,791.826904,167.845932,101.028282,1197.340942,22.855633,"CRUZEXT"
239,16,58,36.791,4579.86,0.59899,-0.176296,0.685472,-0.374512,-0.93665,0.30436,-0.00033,4576.74,0.040971,0.039177,0.588469,-0.80653,0.02855,0.92433,-0.32729,2.32,2.56,2.71,2.8,3.18,3.08,3.06,3.86,3.17,3.95,4.08,4.03,3.88,3.81,3.73,3598,14.991667,61116.792667,203.466599,987.383362,-200.96225,1.24857123323366,2.27693011263317,2.33483588226669,11.624565,791.828125,167.851059,100.990196,1197.365234,22.917166,"CRUZEXT"
240,16,58,36.808,4579.88,0.599031,-0.176505,0.685389,-0.374499,-0.93804,0.30233,-9e-05,4576.76,0.03736,0.040914,0.588719,-0.806437,0.02459,0.91757,-0.3189,2.32,2.56,2.71,2.8,3.19,3.08,3.06,3.87,3.16,3.95,4.09,4.03,3.89,3.81,3.73,3602,15.008333,61116.809333,203.466599,987.383362,-200.96225,1.24828425259873,2.27657760963742,2.33501163242947,11.607028,791.834229,167.876587,100.818359,1197.449829,23.141081,"CRUZEXT"
241,16,58,36.813,4579.9,0.599028,-0.176687,0.685366,-0.374461,-0.93771,0.3019,-0.0007,4576.78,0.033948,0.042522,0.588501,-0.806663,0.04647,0.9052,-0.3087,2.32,2.56,2.71,2.8,3.18,3.08,3.06,3.87,3.15,3.95,4.09,4.04,3.89,3.8,3.73,3603,15.0125,61116.8135,203.466599,987.383362,-200.96225,1.24817962361792,2.27651153448467,2.33501395951925,11.606344,791.828613,167.883514,100.765549,1197.47583,23.186743,"CRUZEXT"
242,16,58,36.872,4579.92,0.599008,-0.176933,0.68532,-0.374461,-0.93661,0.30296,-0.00253,4576.8,0.031095,0.044158,0.588238,-0.806883,0.0592,0.91343,-0.30783,2.32,2.56,2.71,2.8,3.19,3.08,3.05,3.87,3.15,3.95,4.09,4.04,3.9,3.8,3.73,3618,15.075,61116.876,203.466599,987.383362,-200.96225,1.24730044267576,2.27534809957089,2.33563363200731,11.48435,791.7948,167.856537,100.233315,1197.723022,23.902687,"CRUZEXT"
243,16,58,36.877,4579.94,0.59894,-0.177227,0.685252,-0.374555,-0.93804,0.30453,0.00091,4576.82,0.028526,0.045572,0.588086,-0.80701,0.01753,0.8992,-0.31353,2.32,2.56,2.71,2.8,3.19,3.08,3.05,3.87,3.15,3.96,4.1,4.04,3.91,3.8,3.73,3619,15.079167,61116.880167,203.466599,987.383362,-200.96225,1.24724391363072,2.27526513927394,2.33568147179664,11.474787,791.790771,167.864136,100.196663,1197.741699,23.955814,"CRUZEXT"
244,16,58,36.881,4579.96,0.598834,-0.177515,0.685172,-0.374734,-0.93841,0.30143,-0.0026,4576.84,0.026566,0.047001,0.588009,-0.807051,0.08315,0.87385,-0.30315,2.32,2.56,2.71,2.8,3.19,3.08,3.05,3.88,3.16,3.96,4.11,4.04,3.91,3.79,3.73,3620,15.083333,61116.884333,203.466599,987.383362,-200.96225,1.24717400837803,2.27519031127503,2.33571319919331,11.467552,791.78418,167.859894,100.158188,1197.75769,24.000153,"CRUZEXT"
245,16,58,36.928,4579.98,0.598709,-0.177819,0.685115,-0.374893,-0.94172,0.29754,-0.00073,4576.86,0.025431,0.047968,0.588097,-0.806966,0.05668,0.87505,-0.30509,2.32,2.56,2.71,2.81,3.19,3.08,3.05,3.88,3.17,3.96,4.11,4.04,3.92,3.78,3.74,3631,15.129167,61116.930167,203.466599,987.383362,-200.96225,1.24638920184738,2.27427212751646,2.33614585633505,11.377024,791.715332,167.867813,99.768303,1197.831055,24.423632,"CRUZEXT"
246,16,58,36.934,4580,0.598529,-0.178141,0.685077,-0.375099,-0.9368,0.296,-0.00284,4576.88,0.025024,0.048657,0.588394,-0.806721,0.06226,0.88119,-0.3076,2.32,2.56,2.71,2.8,3.19,3.08,3.04,3.88,3.18,3.95,4.11,4.04,3.92,3.78,3.74,3632,15.133333,61116.934333,203.466599,987.383362,-200.96225,1.24629786149481,2.27418995703694,2.33617174769824,11.361903,791.708557,167.873749,99.731773,1197.827637,24.447882,"CRUZEXT"
247,16,58,36.95,4580.02,0.598338,-0.178476,0.685049,-0.375293,-0.93499,0.29635,-0.00012,4576.9,0.025432,0.049154,0.588629,-0.806507,0.07675,0.87354,-0.31789,2.32,2.56,2.71,2.81,3.19,3.08,3.03,3.88,3.19,3.95,4.11,4.04,3.93,3.78,3.74,3636,15.15,61116.951,203.466599,987.383362,-200.96225,1.24594470308139,2.2738746539498,2.33626933732046,11.319256,791.65564,167.914291,99.593407,1197.809082,24.534746,"CRUZEXT"
248,16,58,36.97,4580.04,0.598158,-0.17879,0.685033,-0.375461,-0.93663,0.29602,-0.00314,4576.92,0.026354,0.049464,0.58926,-0.805997,0.06288,0.87429,-0.32553,2.32,2.56,2.71,2.8,3.19,3.08,3.03,3.88,3.2,3.95,4.11,4.04,3.93,3.77,3.74,3641,15.170833,61116.971833,203.466599,987.383362,-200.96225,1.24554648820799,2.27344582242773,2.33645145665142,11.257283,791.583984,167.999481,99.446793,1197.750732,24.629099,"CRUZEXT"
249,16,58,36.976,4580.06,0.597995,-0.179066,0.685028,-0.375597,-0.9376,0.29646,-0.00162,4576.94,0.028026,0.049657,0.590012,-0.805379,0.06642,0.88025,-0.32396,2.32,2.56,2.71,2.8,3.19,3.07,3.02,3.88,3.21,3.94,4.11,4.03,3.94,3.76,3.75,3642,15.175,61116.976,203.466599,987.383362,-200.96225,1.24549788384742,2.27337739111569,2.33648954590738,11.244695,791.568542,168.019943,99.428947,1197.739502,24.644226,"CRUZEXT"
250,16,58,37.008,4580.08,0.597815,-0.179337,0.685028,-0.375756,-0.93701,0.30069,-0.0011,4576.96,0.030336,0.049744,0.590627,-0.804839,0.06416,0.87974,-0.32049,2.32,2.56,2.71,2.81,3.19,3.07,3.01,3.88,3.22,3.94,4.12,4.02,3.95,3.75,3.75,3650,15.208333,61117.009333,203.466599,987.383362,-200.96225,1.24479110652907,2.27292226951063,2.33650995519271,11.146802,791.414551,168.16008,99.227882,1197.592285,24.612396,"CRUZEXT"
251,16,58,37.032,4580.1,0.597636,-0.179563,0.685059,-0.375875,-0.93788,0.30287,0.00021,4576.98,0.033328,0.049777,0.591246,-0.804263,0.06208,0.89118,-0.31853,2.33,2.57,2.71,2.8,3.19,3.06,3,3.87,3.23,3.94,4.12,4.02,3.95,3.75,3.75,3656,15.233333,61117.034333,203.466599,987.383362,-200.96225,1.24403919935389,2.27263815244911,2.33633329384299,11.044747,791.312439,168.249405,99.037979,1197.437378,24.480469,"CRUZEXT"
252,16,58,37.04,4580.12,0.597427,-0.179869,0.685057,-0.376065,-0.93527,0.30396,-0.00159,4577,0.037267,0.049699,0.591779,-0.803703,0.04192,0.89558,-0.33228,2.33,2.57,2.71,2.8,3.19,3.06,2.99,3.87,3.24,3.94,4.12,4.01,3.96,3.75,3.75,3658,15.241667,61117.042667,203.466599,987.383362,-200.96225,1.24366168868869,2.27250773202957,2.33623218222002,11.007417,791.277283,168.277725,98.925827,1197.396606,24.447769,"CRUZEXT"
253,16,58,37.088,4580.14,0.597159,-0.180191,0.685094,-0.376269,-0.93328,0.303,-0.00051,4577.02,0.042141,0.049333,0.592134,-0.803223,0.01092,0.90447,-0.36243,2.33,2.57,2.71,2.81,3.19,3.06,2.99,3.87,3.25,3.93,4.12,4.01,3.96,3.75,3.75,3669,15.2875,61117.0885,203.466599,987.383362,-200.96225,1.24092479459659,2.27165695660582,2.33539870212621,10.805979,791.065491,168.437958,98.095024,1197.161255,24.226526,"CRUZEXT"
254,16,58,37.094,4580.16,0.596836,-0.18045,0.685147,-0.37656,-0.93396,0.30369,-0.00439,4577.04,0.048582,0.049478,0.59235,-0.802691,-0.00825,0.90053,-0.37074,2.33,2.57,2.71,2.81,3.19,3.06,2.98,3.87,3.25,3.93,4.12,4,3.96,3.74,3.75,3671,15.295833,61117.096833,203.466599,987.383362,-200.96225,1.24046192341035,2.27149244569903,2.33527688731061,10.760769,791.019409,168.463577,97.972412,1197.080933,24.155611,"CRUZEXT"
255,16,58,37.112,4580.18,0.596444,-0.180822,0.685216,-0.376878,-0.93168,0.30743,-0.00255,4577.06,0.056241,0.050164,0.592758,-0.801847,0.02047,0.87061,-0.35904,2.33,2.57,2.71,2.8,3.19,3.06,2.98,3.87,3.26,3.93,4.11,3.99,3.97,3.74,3.76,3675,15.3125,61117.1135,203.466599,987.383362,-200.96225,1.23966124204984,2.27121333063961,2.33505996187601,10.661842,790.901917,168.504456,97.785316,1196.894165,23.978672,"CRUZEXT"
256,16,58,37.118,4580.2,0.596063,-0.181142,0.685282,-0.377206,-0.9342,0.30568,-0.00042,4577.08,0.0643,0.051277,0.593737,-0.800445,0.03273,0.89239,-0.32797,2.33,2.57,2.71,2.8,3.19,3.06,2.97,3.86,3.26,3.92,4.12,3.98,3.98,3.73,3.76,3677,15.320833,61117.121833,203.466599,987.383362,-200.96225,1.23937173088818,2.27108755042398,2.33500578953793,10.599874,790.847778,168.515778,97.733116,1196.790039,23.887722,"CRUZEXT"
257,16,58,37.168,4580.22,0.595741,-0.181431,0.685348,-0.377456,-0.9402,0.29928,-0.00047,4577.1,0.072321,0.052431,0.595194,-0.798602,0.0255,0.91157,-0.30437,2.33,2.57,2.71,2.8,3.19,3.06,2.97,3.86,3.27,3.92,4.12,3.97,3.99,3.72,3.76,3689,15.370833,61117.171833,203.466599,987.383362,-200.96225,1.23816856636487,2.2708258127871,2.33452176259313,10.123325,790.492981,168.378769,97.664024,1196.13208,23.137629,"CRUZEXT"
258,16,58,37.176,4580.24,0.59545,-0.181649,0.685438,-0.377649,-0.93801,0.30205,0.00049,4577.12,0.080465,0.053597,0.596773,-0.796564,0.01807,0.92479,-0.28732,2.33,2.57,2.71,2.81,3.19,3.06,2.96,3.86,3.27,3.92,4.12,3.97,3.99,3.72,3.76,3690,15.375,61117.176,203.466599,987.383362,-200.96225,1.2380582078305,2.27084024924277,2.33443932877863,10.085415,790.467651,168.353165,97.659271,1196.078369,23.056841,"CRUZEXT"
259,16,58,37.191,4580.26,0.595135,-0.181775,0.68558,-0.377825,-0.93556,0.30422,0.00356,4577.14,0.088663,0.054507,0.598486,-0.794344,0.01465,0.92904,-0.27419,2.33,2.57,2.71,2.8,3.19,3.06,2.96,3.86,3.28,3.92,4.12,3.96,3.99,3.72,3.76,3694,15.391667,61117.192667,203.466599,987.383362,-200.96225,1.23789222092996,2.27094788126152,2.33423055217034,9.926006,790.370361,168.243027,97.726234,1195.872803,22.758789,"CRUZEXT"
260,16,58,37.196,4580.28,0.594771,-0.181997,0.685757,-0.377972,-0.9382,0.30162,0.00248,4577.16,0.096878,0.055147,0.600436,-0.791865,-0.0019,0.92664,-0.26692,2.33,2.57,2.71,2.8,3.19,3.06,2.96,3.85,3.28,3.92,4.12,3.96,4,3.71,3.76,3695,15.395833,61117.196833,203.466599,987.383362,-200.96225,1.23787361062561,2.27099966611281,2.33416796136731,9.88518,790.357056,168.207947,97.748215,1195.831055,22.685616,"CRUZEXT"
261,16,58,37.248,4580.3,0.59434,-0.182192,0.685984,-0.378143,-0.93605,0.2994,9e-05,4577.18,0.105387,0.0553,0.602311,-0.789339,-0.02032,0.9318,-0.26287,2.34,2.57,2.71,2.8,3.19,3.06,2.95,3.85,3.28,3.91,4.11,3.95,4,3.71,3.77,3708,15.45,61117.251,203.466599,987.383362,-200.96225,1.23851772316082,2.27210483093403,2.33347545880838,9.477653,790.149963,167.71402,98.41774,1195.169556,21.52282,"CRUZEXT"
262,16,58,37.254,4580.32,0.593827,-0.182325,0.686316,-0.378282,-0.93124,0.29745,0.00234,4577.2,0.113846,0.05526,0.603712,-0.787095,-0.04117,0.9431,-0.26318,2.34,2.57,2.71,2.8,3.19,3.06,2.95,3.85,3.28,3.91,4.12,3.94,4.01,3.71,3.77,3709,15.454167,61117.255167,203.466599,987.383362,-200.96225,1.23862798253743,2.27223479708457,2.33341524975426,9.453347,790.141418,167.679825,98.488869,1195.127197,21.429226,"CRUZEXT"
263,16,58,37.272,4580.34,0.593395,-0.182259,0.686711,-0.378274,-0.93382,0.29253,-0.00019,4577.22,0.122304,0.055126,0.604547,-0.785192,-0.05174,0.9642,-0.25673,2.34,2.57,2.72,2.8,3.19,3.06,2.94,3.85,3.28,3.91,4.11,3.94,4.01,3.71,3.77,3714,15.475,61117.276,203.466599,987.383362,-200.96225,1.23902307709289,2.27264603048713,2.33325307029675,9.35481,790.056763,167.479675,98.772888,1194.903687,21.044189,"CRUZEXT"
264,16,58,37.289,4580.36,0.593128,-0.182086,0.68707,-0.378126,-0.94114,0.29241,0.00476,4577.24,0.130556,0.054915,0.604961,-0.783557,-0.06667,0.95565,-0.2549,2.35,2.57,2.72,2.8,3.19,3.06,2.94,3.85,3.29,3.91,4.12,3.93,4.02,3.71,3.77,3718,15.491667,61117.292667,203.466599,987.383362,-200.96225,1.23945158434959,2.27306111176469,2.33310736666979,9.293558,790.010132,167.319214,99.046944,1194.719971,20.705,"CRUZEXT"
265,16,58,37.296,4580.38,0.592993,-0.181711,0.687434,-0.377856,-0.94291,0.29729,0.00886,4577.26,0.139087,0.054418,0.605442,-0.78175,-0.08486,0.93508,-0.24559,2.35,2.57,2.72,2.8,3.19,3.06,2.94,3.85,3.29,3.9,4.12,3.92,4.02,3.7,3.78,3719,15.495833,61117.296833,203.466599,987.383362,-200.96225,1.23956845336619,2.27313549059624,2.3331059027284,9.286738,789.999329,167.276596,99.117401,1194.668701,20.630369,"CRUZEXT"
266,16,58,37.354,4580.4,0.592958,-0.181207,0.687831,-0.37743,-0.94552,0.30155,0.01542,4577.28,0.147503,0.053538,0.605726,-0.780047,-0.09042,0.94531,-0.22886,2.35,2.57,2.73,2.81,3.19,3.06,2.93,3.85,3.29,3.9,4.12,3.92,4.02,3.7,3.78,3733,15.554167,61117.355167,203.466599,987.383362,-200.96225,1.24136957794828,2.27442599205051,2.33293794231127,9.218046,789.851318,166.857681,100.129059,1194.054688,19.598963,"CRUZEXT"
267,16,58,37.36,4580.42,0.593027,-0.180588,0.688219,-0.376911,-0.94312,0.30443,0.01629,4577.3,0.155948,0.052186,0.605642,-0.77856,-0.10099,0.94407,-0.23277,2.35,2.57,2.73,2.81,3.19,3.06,2.93,3.85,3.29,3.9,4.11,3.91,4.03,3.7,3.78,3735,15.5625,61117.3635,203.466599,987.383362,-200.96225,1.24164140629912,2.27459206364943,2.33294044251999,9.21152,789.840576,166.842667,100.27832,1193.960815,19.456221,"CRUZEXT"
268,16,58,37.365,4580.44,0.593061,-0.180004,0.688623,-0.376399,-0.93893,0.30886,0.01815,4577.32,0.16435,0.050576,0.605401,-0.777123,-0.12908,0.94355,-0.23528,2.35,2.58,2.74,2.82,3.19,3.06,2.92,3.84,3.29,3.9,4.11,3.91,4.03,3.7,3.78,3736,15.566667,61117.367667,203.466599,987.383362,-200.96225,1.2417697603407,2.27466907849731,2.33294296433842,9.220789,789.831543,166.832779,100.352051,1193.909546,19.382107,"CRUZEXT"
269,16,58,37.392,4580.46,0.593019,-0.179406,0.689074,-0.375925,-0.93342,0.31159,0.0203,4577.34,0.172522,0.049061,0.605241,-0.775573,-0.13257,0.95346,-0.23924,2.34,2.58,2.74,2.83,3.19,3.06,2.92,3.84,3.29,3.9,4.12,3.91,4.03,3.7,3.78,3742,15.591667,61117.392667,203.466599,987.383362,-200.96225,1.24258139115865,2.275315228586,2.33280101626816,9.266009,789.807007,166.829956,100.80999,1193.63916,18.89361,"CRUZEXT"
270,16,58,37.397,4580.48,0.592998,-0.178932,0.689429,-0.375533,-0.93565,0.31105,0.01756,4577.36,0.180721,0.047269,0.6054,-0.773691,-0.14748,0.94224,-0.25141,2.34,2.59,2.74,2.84,3.19,3.06,2.92,3.84,3.3,3.89,4.12,3.9,4.03,3.69,3.78,3744,15.6,61117.401,203.466599,987.383362,-200.96225,1.242877894226,2.27544664275078,2.33285225477263,9.282298,789.81073,166.842285,100.965668,1193.53772,18.763313,"CRUZEXT"
271,16,58,37.451,4580.5,0.592984,-0.178371,0.689816,-0.37511,-0.93828,0.31048,0.0188,4577.38,0.188241,0.04533,0.605363,-0.772041,-0.15342,0.9243,-0.25202,2.34,2.6,2.74,2.85,3.19,3.06,2.92,3.84,3.29,3.89,4.12,3.9,4.04,3.69,3.78,3756,15.65,61117.451,203.466599,987.383362,-200.96225,1.24459948741194,2.27619479207273,2.33316159886944,9.435901,789.768005,166.996918,101.870453,1192.938232,18.002758,"CRUZEXT"
272,16,58,37.456,4580.52,0.593067,-0.177911,0.69008,-0.37471,-0.93816,0.31074,0.01474,4577.4,0.19521,0.043684,0.605721,-0.770121,-0.19127,0.9594,-0.2304,2.33,2.61,2.74,2.86,3.19,3.06,2.91,3.84,3.3,3.89,4.11,3.9,4.04,3.69,3.78,3758,15.658333,61117.459333,203.466599,987.383362,-200.96225,1.24487587265302,2.2763291532446,2.33319671823903,9.479636,789.753845,167.045242,102.012634,1192.85083,17.883175,"CRUZEXT"
273,16,58,37.461,4580.54,0.593173,-0.177488,0.690317,-0.374307,-0.93527,0.31123,0.01275,4577.42,0.202274,0.042303,0.607265,-0.767154,-0.17405,0.99962,-0.2194,2.32,2.61,2.73,2.87,3.19,3.06,2.91,3.84,3.3,3.89,4.11,3.9,4.04,3.69,3.79,3759,15.6625,61117.4635,203.466599,987.383362,-200.96225,1.24500519865778,2.276391013993,2.33321410517434,9.501735,789.744751,167.059174,102.076172,1192.815674,17.833824,"CRUZEXT"
274,16,58,37.49,4580.56,0.593128,-0.177115,0.690533,-0.374158,-0.93351,0.31677,0.0116,4577.44,0.208732,0.041291,0.609836,-0.76343,-0.18862,0.96535,-0.24552,2.31,2.62,2.72,2.88,3.19,3.05,2.91,3.83,3.3,3.88,4.11,3.9,4.04,3.69,3.78,3766,15.691667,61117.492667,203.466599,987.383362,-200.96225,1.24568873334015,2.27681614542575,2.33320849737686,9.663754,789.7276,167.223373,102.413712,1192.649292,17.54631,"CRUZEXT"
275,16,58,37.509,4580.58,0.593053,-0.177055,0.690688,-0.374019,-0.9342,0.32513,0.01608,4577.46,0.215927,0.039972,0.612414,-0.759425,-0.26692,0.9221,-0.27532,2.31,2.62,2.71,2.9,3.19,3.05,2.9,3.83,3.3,3.88,4.12,3.9,4.04,3.68,3.79,3770,15.708333,61117.509333,203.466599,987.383362,-200.96225,1.2461149856632,2.27714030755582,2.33314621962455,9.757232,789.734985,167.263275,102.607941,1192.592163,17.388247,"CRUZEXT"
276,16,58,37.514,4580.6,0.592863,-0.176961,0.690778,-0.374199,-0.93652,0.32188,0.0127,4577.48,0.224172,0.038186,0.614205,-0.755673,-0.23045,0.88271,-0.27243,2.3,2.62,2.7,2.91,3.19,3.05,2.9,3.83,3.3,3.88,4.11,3.9,4.04,3.68,3.79,3772,15.716667,61117.517667,203.466599,987.383362,-200.96225,1.24627390607604,2.27723480867176,2.3331489744593,9.798627,789.733643,167.276291,102.684235,1192.556519,17.326773,"CRUZEXT"
277,16,58,37.547,4580.62,0.592646,-0.177079,0.6909,-0.374261,-0.9356,0.31365,0.01491,4577.5,0.231801,0.036749,0.615252,-0.752584,-0.18422,0.88853,-0.23835,2.3,2.62,2.69,2.92,3.19,3.05,2.9,3.83,3.3,3.88,4.11,3.9,4.04,3.68,3.79,3780,15.75,61117.551,203.466599,987.383362,-200.96225,1.24667972705223,2.2776425231348,2.3329912960533,9.92376,789.689697,167.29361,102.926132,1192.40918,17.029861,"CRUZEXT"
278,16,58,37.573,4580.64,0.592442,-0.177227,0.690969,-0.374387,-0.93312,0.31238,0.01355,4577.52,0.240723,0.035826,0.616215,-0.749031,-0.29783,0.96514,-0.24337,2.3,2.62,2.68,2.94,3.18,3.05,2.89,3.83,3.3,3.87,4.12,3.9,4.04,3.68,3.79,3786,15.775,61117.576,203.466599,987.383362,-200.96225,1.24691019345872,2.27818404490513,2.3325950721221,9.980709,789.630981,167.31134,103.12822,1192.267334,16.650665,"CRUZEXT"
279,16,58,37.578,4580.66,0.592178,-0.177442,0.690996,-0.374652,-0.9325,0.31508,0.01249,4577.54,0.249515,0.033956,0.616285,-0.746178,-0.23178,0.94357,-0.25773,2.3,2.62,2.67,2.95,3.18,3.05,2.89,3.83,3.3,3.87,4.12,3.9,4.04,3.68,3.79,3787,15.779167,61117.580167,203.466599,987.383362,-200.96225,1.24695392886773,2.27829210788225,2.33251461894568,9.986245,789.619202,167.310776,103.170525,1192.233521,16.568907,"CRUZEXT"
280,16,58,37.631,4580.68,0.592011,-0.177728,0.691025,-0.374727,-0.9327,0.31632,0.0211,4577.56,0.258518,0.031977,0.615034,-0.744231,-0.2443,0.89572,-0.24869,2.3,2.62,2.66,2.97,3.17,3.05,2.89,3.82,3.3,3.87,4.12,3.9,4.04,3.68,3.79,3800,15.833333,61117.634333,203.466599,987.383362,-200.96225,1.24727234229417,2.27935297702112,2.33165746121606,9.905462,789.525391,167.152649,103.641129,1191.718994,15.558959,"CRUZEXT"
281,16,58,37.636,4580.7,0.591938,-0.178039,0.69107,-0.374612,-0.93954,0.30879,0.02054,4577.58,0.267577,0.030239,0.614317,-0.741689,-0.22907,0.90119,-0.23389,2.3,2.62,2.65,2.98,3.17,3.05,2.88,3.82,3.3,3.87,4.12,3.9,4.04,3.68,3.79,3801,15.8375,61117.6385,203.466599,987.383362,-200.96225,1.24724556010575,2.27946710902011,2.33152837037677,9.88675,789.52417,167.129105,103.66404,1191.682983,15.462626,"CRUZEXT"
282,16,58,37.641,4580.72,0.59183,-0.178282,0.691095,-0.374621,-0.94191,0.29381,0.01601,4577.6,0.275811,0.029035,0.614714,-0.738385,-0.33719,0.91821,-0.22742,2.3,2.62,2.63,2.99,3.16,3.04,2.88,3.82,3.3,3.86,4.12,3.9,4.04,3.68,3.79,3802,15.841667,61117.642667,203.466599,987.383362,-200.96225,1.2472224773504,2.2795673326573,2.33141526823729,9.874414,789.513306,167.100128,103.689827,1191.640015,15.366104,"CRUZEXT"
283,16,58,37.667,4580.74,0.591541,-0.178623,0.691162,-0.374792,-0.93628,0.29538,0.01273,4577.62,0.285076,0.027945,0.615111,-0.734567,-0.29813,0.92671,-0.24306,2.3,2.62,2.62,2.99,3.16,3.04,2.88,3.82,3.3,3.86,4.12,3.9,4.04,3.68,3.79,3808,15.866667,61117.667667,203.466599,987.383362,-200.96225,1.24720558118309,2.28028952250891,2.33069035996767,9.763688,789.520752,166.929413,103.895721,1191.379883,14.744327,"CRUZEXT"
284,16,58,37.693,4580.76,0.591152,-0.179048,0.691233,-0.375071,-0.93223,0.30648,0.01365,4577.64,0.293272,0.026184,0.614555,-0.731866,-0.31677,0.87137,-0.24529,2.3,2.63,2.6,3,3.15,3.04,2.87,3.82,3.3,3.86,4.12,3.91,4.04,3.69,3.79,3815,15.895833,61117.696833,203.466599,987.383362,-200.96225,1.24701377577628,2.28112468867171,2.32974774556003,9.688957,789.532043,166.754166,104.072716,1191.098755,14.024255,"CRUZEXT"
285,16,58,37.698,4580.78,0.590806,-0.179457,0.691301,-0.375295,-0.93569,0.30406,0.00966,4577.66,0.303021,0.025023,0.61431,-0.728132,-0.36748,0.92432,-0.24128,2.3,2.63,2.58,3.01,3.15,3.04,2.87,3.82,3.3,3.86,4.12,3.91,4.04,3.69,3.79,3816,15.9,61117.701,203.466599,987.383362,-200.96225,1.24696768084904,2.28122795775843,2.32961764550338,9.68377,789.529175,166.728226,104.086662,1191.06665,13.935086,"CRUZEXT"
286,16,58,37.746,4580.8,0.590569,-0.179784,0.69131,-0.375494,-0.93846,0.30012,0.01085,4577.68,0.311041,0.023673,0.614105,-0.724961,-0.32024,0.8604,-0.25192,2.3,2.63,2.57,3.01,3.15,3.04,2.87,3.82,3.3,3.85,4.12,3.91,4.04,3.7,3.79,3827,15.945833,61117.746833,203.466599,987.383362,-200.96225,1.24632508931105,2.28251735643124,2.32795194520448,9.654632,789.529663,166.459503,104.17733,1190.796265,12.952073,"CRUZEXT"
287,16,58,37.751,4580.82,0.590344,-0.179904,0.691374,-0.375673,-0.94055,0.29743,0.01578,4577.7,0.320623,0.02219,0.613655,-0.721204,-0.41164,0.88902,-0.26189,2.3,2.63,2.55,3.02,3.15,3.04,2.87,3.82,3.3,3.85,4.12,3.91,4.04,3.69,3.79,3828,15.95,61117.751,203.466599,987.383362,-200.96225,1.2462717757492,2.28264240519332,2.32779577685086,9.653423,789.531433,166.44043,104.187904,1190.771851,12.860053,"CRUZEXT"
288,16,58,37.771,4580.84,0.590243,-0.179908,0.691379,-0.375822,-0.94113,0.30249,0.01671,4577.72,0.330981,0.020322,0.612092,-0.717901,-0.35554,0.85029,-0.25459,2.3,2.64,2.53,3.03,3.15,3.03,2.87,3.81,3.3,3.85,4.12,3.91,4.04,3.7,3.79,3833,15.970833,61117.771833,203.466599,987.383362,-200.96225,1.24588790773648,2.28310782143821,2.32710207101841,9.658075,789.519958,166.331528,104.219727,1190.584473,12.39108,"CRUZEXT"
289,16,58,37.776,4580.86,0.590211,-0.179877,0.691419,-0.375813,-0.93949,0.30266,0.01489,4577.74,0.340239,0.017647,0.61054,-0.71496,-0.40163,0.82329,-0.25,2.31,2.64,2.51,3.03,3.14,3.03,2.87,3.81,3.3,3.85,4.12,3.92,4.03,3.7,3.8,3834,15.975,61117.776,203.466599,987.383362,-200.96225,1.24582815869941,2.28320860878415,2.32696597219347,9.663668,789.514526,166.320206,104.233681,1190.543579,12.292481,"CRUZEXT"
290,16,58,37.807,4580.88,0.590193,-0.179767,0.691461,-0.375815,-0.93733,0.31116,0.021,4577.76,0.3512,0.015506,0.609186,-0.710853,-0.40794,0.86384,-0.25167,2.31,2.64,2.49,3.04,3.15,3.03,2.87,3.81,3.3,3.84,4.12,3.91,4.03,3.7,3.79,3842,16.008333,61117.809333,203.466599,987.383362,-200.96225,1.24489839465608,2.28394205360667,2.3256746235775,9.639526,789.481873,166.213211,104.239021,1190.14563,11.402905,"CRUZEXT"
