Sample,Hour,Minute,Sec,Stamp,Quat1,Quat2,Quat3,Quat4,AccX,AccY,AccZ,Stamp2,Quat2_1,Quat2_2,Quat2_3,Quat2_4,Acc2_X,Acc2_Y,Acc2_Z,A0,A1,A2,A3,A4,A5,A6,A7,A8,A9,A10,A11,A12,A13,A14,Frame,Time,realTime,BrazoX,BrazoY,BrazoZ,angBrazoX,angBrazoY,angBrazoZ,EspaldaX,EspaldaY,EspaldaZ,refX,refY,refZ,type
2,17,18,1.649,5744.68,-0.413132,0.40675,-0.532018,0.617117,-0.92547,0.31512,-0.10631,5741.44,-0.056934,-0.759157,-0.004911,-0.648394,-0.9672,0.06492,0.15487,2.26,2.47,2.34,3.11,3.21,2,2,2,2,2,4,4,4,4,4,2148,8.95,62281.65,13.179675,948.63916,-195.362869,1.87931474801885,2.47502484987325,2.13956374326688,18.844801,819.052307,155.088348,103.627686,1182.751099,-34.930874,"LATERAL"
3,17,18,1.672,5744.7,-0.413088,0.406705,-0.532042,0.617155,-0.92589,0.31431,-0.10503,5741.46,-0.05606,-0.759213,-0.00425,-0.648409,-0.97276,0.06292,0.1464,2.26,2.47,2.34,3.11,3.21,3,2.62,3.87,3.29,3.8,4.1,4.09,4.04,3.8,3.69,2154,8.975,62281.675,12.987366,948.572754,-195.371933,1.87906961464435,2.4752365796236,2.13949325025477,18.806179,819.023132,155.109711,103.365219,1182.722168,-34.958668,"LATERAL"
4,17,18,1.682,5744.72,-0.413021,0.406594,-0.532098,0.617226,-0.92932,0.31444,-0.10732,5741.48,-0.055352,-0.759216,-0.003558,-0.64847,-0.97817,0.05971,0.14519,2.26,2.47,2.34,3.11,3.21,2.99,2.62,3.86,3.29,3.8,4.11,4.09,4.04,3.8,3.69,2156,8.983333,62281.683333,12.904119,948.543762,-195.351791,1.87907338209238,2.47534411355525,2.13937569970151,18.791239,819.015259,155.130768,103.283386,1182.713867,-34.967419,"LATERAL"
5,17,18,1.692,5744.74,-0.413001,0.406478,-0.532207,0.617221,-0.93155,0.31634,-0.1054,5741.5,-0.054484,-0.759114,-0.002923,-0.648667,-0.97682,0.05805,0.14727,2.26,2.47,2.34,3.11,3.21,2.99,2.62,3.86,3.29,3.8,4.11,4.09,4.04,3.81,3.69,2159,8.995833,62281.695833,12.744761,948.498657,-195.29834,1.87918995788163,2.47547526696889,2.13916094157748,18.784605,819.002075,155.150894,103.156395,1182.69104,-34.969154,"LATERAL"
6,17,18,1.7,5744.76,-0.413062,0.40633,-0.532425,0.61709,-0.92901,0.31653,-0.10369,5741.52,-0.053687,-0.758959,-0.002151,-0.648917,-0.9747,0.0565,0.15158,2.26,2.47,2.34,3.11,3.21,2.99,2.63,3.87,3.29,3.81,4.11,4.09,4.04,3.81,3.69,2160,9,62281.7,12.685776,948.481873,-195.278152,1.87929574663312,2.47553514895058,2.13902934610267,18.784035,819.000305,155.159592,103.126595,1182.683105,-34.98349,"LATERAL"
7,17,18,1.705,5744.78,-0.413174,0.406174,-0.532669,0.616907,-0.9262,0.31946,-0.1047,5741.54,-0.052906,-0.758753,-0.001341,-0.649225,-0.97306,0.05746,0.15342,2.26,2.48,2.34,3.11,3.21,3,2.63,3.87,3.29,3.81,4.1,4.09,4.04,3.81,3.69,2162,9.008333,62281.708333,12.565959,948.447937,-195.238785,1.87943890929116,2.47562864558181,2.13883785823249,18.777189,818.993469,155.176559,103.048164,1182.668335,-34.99086,"LATERAL"
8,17,18,1.71,5744.8,-0.413281,0.406124,-0.533018,0.616566,-0.92672,0.31852,-0.10461,5741.56,-0.052141,-0.758526,-0.000602,-0.649553,-0.97245,0.06011,0.15742,2.26,2.48,2.34,3.11,3.22,3,2.64,3.87,3.29,3.81,4.1,4.08,4.03,3.81,3.69,2163,9.0125,62281.7125,12.497824,948.424988,-195.212402,1.87952380157292,2.47567630267251,2.1387326183799,18.770039,818.990234,155.180038,103.00592,1182.658813,-34.987717,"LATERAL"
9,17,18,1.718,5744.82,-0.413399,0.406028,-0.533343,0.616269,-0.92702,0.31576,-0.10073,5741.58,-0.051517,-0.75824,0.00021,-0.649937,-0.97332,0.06234,0.1637,2.26,2.49,2.34,3.11,3.22,3,2.64,3.87,3.29,3.81,4.1,4.08,4.03,3.81,3.69,2165,9.020833,62281.720833,12.367289,948.396667,-195.168304,1.87970115594559,2.47575033965108,2.13854003472539,18.761118,818.982178,155.19368,102.923988,1182.639648,-34.995037,"LATERAL"
10,17,18,1.724,5744.84,-0.413494,0.405941,-0.533639,0.616007,-0.92644,0.31791,-0.10092,5741.6,-0.051149,-0.758169,0.000749,-0.650048,-0.94421,0.05064,0.17114,2.26,2.49,2.34,3.11,3.22,2.99,2.65,3.87,3.29,3.81,4.1,4.09,4.03,3.81,3.69,2166,9.025,62281.725,12.300795,948.374695,-195.144333,1.87979287727956,2.47577679278962,2.13845308577376,18.765137,818.975891,155.194458,102.884377,1182.624756,-34.99139,"LATERAL"
11,17,18,1.733,5744.86,-0.413562,0.405852,-0.533906,0.615788,-0.92447,0.32077,-0.10203,5741.62,-0.050932,-0.758033,0.00117,-0.650224,-0.99137,0.0652,0.16506,2.26,2.49,2.34,3.11,3.22,3,2.65,3.87,3.29,3.81,4.11,4.08,4.02,3.82,3.68,2168,9.033333,62281.733333,12.167497,948.342285,-195.093857,1.87996719045367,2.47587681619018,2.13823446505382,18.766464,818.97821,155.200363,102.799774,1182.608765,-34.997181,"LATERAL"
12,17,18,1.738,5744.88,-0.413635,0.405795,-0.534135,0.615578,-0.92589,0.32371,-0.10055,5741.64,-0.050859,-0.757809,0.001446,-0.65049,-0.96912,0.05889,0.16525,2.26,2.49,2.34,3.11,3.22,3,2.66,3.87,3.29,3.81,4.1,4.08,4.02,3.81,3.69,2170,9.041667,62281.741667,12.027729,948.308655,-195.042068,1.88015472339283,2.47595901506397,2.13802639625961,18.766293,818.959351,155.203766,102.711639,1182.586182,-35.000443,"LATERAL"
13,17,18,1.743,5744.9,-0.413621,0.405825,-0.534395,0.615343,-0.92768,0.32249,-0.1027,5741.66,-0.050982,-0.757787,0.001117,-0.650506,-0.96722,0.05669,0.16042,2.26,2.5,2.34,3.11,3.22,2.99,2.66,3.87,3.28,3.82,4.1,4.07,4.01,3.82,3.69,2171,9.045833,62281.745833,11.962124,948.297974,-195.018082,1.88026043895929,2.47599850555561,2.13791639934238,18.763023,818.957336,155.208069,102.678154,1182.588257,-35.00034,"LATERAL"
14,17,18,1.756,5744.92,-0.413615,0.40586,-0.534543,0.615194,-0.92719,0.32143,-0.0997,5741.68,-0.051288,-0.7576,0.000979,-0.650701,-0.96899,0.05103,0.16033,2.26,2.5,2.34,3.11,3.22,3,2.67,3.87,3.28,3.82,4.1,4.07,4.01,3.82,3.69,2174,9.058333,62281.758333,11.761188,948.273926,-194.945526,1.88053206945451,2.47608093711404,2.13765403942991,18.76511,818.951477,155.213394,102.549873,1182.567993,-35.001472,"LATERAL"
15,17,18,1.762,5744.94,-0.413624,0.40586,-0.534667,0.615081,-0.92629,0.32291,-0.09947,5741.7,-0.051539,-0.75759,0.000348,-0.650692,-0.96718,0.05373,0.15703,2.26,2.5,2.34,3.11,3.22,3,2.67,3.87,3.28,3.82,4.1,4.07,4.01,3.82,3.68,2175,9.0625,62281.7625,11.693046,948.263306,-194.915451,1.88062588886066,2.47609743707514,2.1375762135002,18.771538,818.952759,155.219406,102.509819,1182.564209,-34.988358,"LATERAL"
16,17,18,1.768,5744.96,-0.413494,0.405801,-0.534876,0.615026,-0.92569,0.32464,-0.09855,5741.72,-0.051973,-0.757562,-0.000171,-0.650691,-0.97295,0.05312,0.1524,2.26,2.5,2.34,3.11,3.22,3,2.68,3.87,3.28,3.82,4.1,4.06,4,3.82,3.68,2177,9.070833,62281.770833,11.546793,948.255615,-194.868668,1.88083112301403,2.47611811037412,2.13742242903927,18.778812,818.947144,155.225357,102.419174,1182.553589,-34.984814,"LATERAL"
17,17,18,1.774,5744.98,-0.413504,0.405787,-0.534927,0.614983,-0.92576,0.32378,-0.0968,5741.74,-0.052325,-0.757564,-0.000696,-0.65066,-0.98286,0.05762,0.15053,2.27,2.5,2.34,3.11,3.22,3,2.69,3.87,3.28,3.83,4.1,4.06,4,3.83,3.69,2178,9.075,62281.775,11.472073,948.260071,-194.843262,1.88097515651491,2.47610148181529,2.13734783897518,18.777878,818.950806,155.23259,102.384766,1182.553589,-34.979107,"LATERAL"
18,17,18,1.798,5745,-0.413339,0.405932,-0.535107,0.614842,-0.92562,0.32181,-0.09692,5741.76,-0.052574,-0.757636,-0.001408,-0.650555,-0.97953,0.06163,0.15259,2.27,2.5,2.35,3.11,3.22,3,2.69,3.87,3.27,3.83,4.1,4.06,4,3.83,3.69,2184,9.1,62281.8,10.987298,948.271362,-194.652893,1.88186611407312,2.47602554507339,2.13685661187721,18.775717,818.959473,155.294632,102.147339,1182.537231,-34.921539,"LATERAL"
19,17,18,1.804,5745.02,-0.41328,0.405938,-0.53507,0.61491,-0.92671,0.31918,-0.09774,5741.78,-0.053063,-0.757722,-0.002049,-0.650414,-0.98066,0.06677,0.14816,2.27,2.5,2.35,3.11,3.22,3,2.7,3.87,3.27,3.83,4.1,4.06,3.99,3.83,3.69,2185,9.104167,62281.804167,10.902795,948.271179,-194.620712,1.88202655233974,2.47601666989085,2.13676282952837,18.779198,818.958984,155.303726,102.10965,1182.538818,-34.910614,"LATERAL"
20,17,18,1.835,5745.04,-0.413187,0.405942,-0.535019,0.615014,-0.92902,0.31799,-0.09506,5741.8,-0.053528,-0.757782,-0.002746,-0.650303,-0.9801,0.06367,0.14437,2.27,2.5,2.35,3.11,3.22,3,2.71,3.87,3.27,3.84,4.1,4.05,3.99,3.83,3.69,2193,9.1375,62281.8375,10.251449,948.3573,-194.396271,1.88327454806449,2.47567973399173,2.13631914305858,18.817066,818.965454,155.397568,101.807793,1182.552002,-34.805195,"LATERAL"
21,17,18,1.84,5745.06,-0.41307,0.405984,-0.534854,0.615208,-0.9281,0.31723,-0.10106,5741.82,-0.054211,-0.757821,-0.003325,-0.650199,-0.97866,0.05718,0.14144,2.28,2.5,2.35,3.11,3.22,3,2.71,3.87,3.27,3.84,4.1,4.05,3.98,3.83,3.7,2194,9.141667,62281.841667,10.178073,948.369568,-194.371613,1.88335774222807,2.47565701525303,2.13628973901752,18.820229,818.963135,155.41185,101.757027,1182.557617,-34.789616,"LATERAL"
22,17,18,1.875,5745.08,-0.412988,0.405965,-0.53468,0.615428,-0.92681,0.32382,-0.09935,5741.84,-0.054875,-0.757828,-0.003763,-0.650131,-0.97403,0.05411,0.13949,2.28,2.5,2.35,3.11,3.22,3,2.71,3.87,3.26,3.85,4.09,4.04,3.98,3.84,3.69,2202,9.175,62281.875,9.653271,948.457092,-194.200226,1.88424321223064,2.47531611146263,2.13608242899053,18.836283,818.960632,155.542328,101.486664,1182.591431,-34.664211,"LATERAL"
23,17,18,1.88,5745.1,-0.41283,0.406007,-0.53453,0.615636,-0.9263,0.32361,-0.10052,5741.86,-0.055237,-0.757765,-0.004192,-0.650172,-0.97124,0.05704,0.13946,2.28,2.49,2.35,3.11,3.22,3,2.72,3.87,3.26,3.85,4.09,4.03,3.97,3.84,3.7,2204,9.183333,62281.883333,9.538843,948.470459,-194.156372,1.8844470363724,2.47526851384342,2.13600134570712,18.852617,818.950256,155.57132,101.429276,1182.594238,-34.641975,"LATERAL"
24,17,18,1.915,5745.12,-0.412771,0.406009,-0.534339,0.61584,-0.92812,0.32363,-0.10181,5741.88,-0.055759,-0.757744,-0.004443,-0.65015,-0.97096,0.06362,0.13733,2.28,2.49,2.35,3.11,3.22,3,2.72,3.88,3.26,3.85,4.08,4.02,3.97,3.84,3.69,2212,9.216667,62281.916667,9.125135,948.483704,-194.021271,1.88510125608118,2.47516083895953,2.13569208779654,18.929762,818.929199,155.653564,101.20314,1182.593384,-34.580765,"LATERAL"
25,17,18,1.92,5745.14,-0.412654,0.406056,-0.534161,0.616042,-0.92639,0.32234,-0.10252,5741.9,-0.056308,-0.757597,-0.004773,-0.650272,-0.97062,0.0625,0.1328,2.28,2.49,2.35,3.11,3.22,3,2.72,3.88,3.26,3.86,4.07,4,3.96,3.85,3.69,2213,9.220833,62281.920833,9.080935,948.478271,-194.00737,1.88514975783136,2.47519542342452,2.13562338027529,18.943548,818.92688,155.661301,101.171638,1182.591675,-34.585949,"LATERAL"
26,17,18,1.955,5745.16,-0.412507,0.406137,-0.53398,0.616244,-0.92364,0.32174,-0.10221,5741.92,-0.057024,-0.757524,-0.005107,-0.650291,-0.97438,0.0624,0.12915,2.28,2.49,2.36,3.11,3.22,3,2.73,3.87,3.25,3.86,4.07,3.99,3.95,3.85,3.69,2222,9.258333,62281.958333,8.813086,948.447449,-193.965012,1.88528317156697,2.47541047969859,2.1353054409629,19.078396,818.953979,155.667419,100.946724,1182.613525,-34.614681,"LATERAL"
27,17,18,1.96,5745.18,-0.412346,0.406251,-0.533785,0.616445,-0.92423,0.3197,-0.09973,5741.94,-0.057613,-0.757485,-0.00534,-0.650284,-0.98286,0.06716,0.12429,2.29,2.5,2.36,3.11,3.22,3,2.73,3.87,3.25,3.86,4.06,3.98,3.94,3.86,3.7,2223,9.2625,62281.9625,8.806082,948.445801,-193.976685,1.88523718726886,2.4754200755075,2.13532505070651,19.094755,818.958069,155.654495,100.927177,1182.614868,-34.620586,"LATERAL"
28,17,18,1.995,5745.2,-0.412189,0.406417,-0.533566,0.616631,-0.92486,0.31745,-0.09844,5741.96,-0.057639,-0.757229,-0.005294,-0.650579,-0.98556,0.06442,0.12777,2.29,2.5,2.36,3.11,3.22,3,2.74,3.88,3.24,3.87,4.06,3.96,3.94,3.86,3.7,2231,9.295833,62281.995833,8.890761,948.516602,-194.233353,1.88469663264758,2.47543596419084,2.13565939791234,19.199823,819.018372,155.535614,100.864151,1182.702393,-34.783733,"LATERAL"
29,17,18,2,5745.22,-0.411922,0.406565,-0.5333,0.616941,-0.92981,0.31531,-0.09607,5741.98,-0.05765,-0.757234,-0.005005,-0.650576,-0.98143,0.0686,0.12985,2.29,2.49,2.36,3.1,3.22,3,2.74,3.88,3.24,3.87,4.05,3.94,3.92,3.87,3.69,2232,9.3,62282,8.921397,948.536499,-194.280304,1.88459147778963,2.47540451693202,2.13576147569912,19.206907,819.021667,155.510742,100.864967,1182.716431,-34.80505,"LATERAL"
30,17,18,2.034,5745.24,-0.411598,0.406746,-0.532917,0.617369,-0.92836,0.31716,-0.10043,5742,-0.057234,-0.757253,-0.004436,-0.650594,-0.98605,0.0564,0.13081,2.29,2.49,2.36,3.1,3.22,3,2.75,3.88,3.23,3.87,4.04,3.92,3.91,3.87,3.7,2241,9.3375,62282.0375,9.396729,948.856995,-194.775055,1.88404460218898,2.47461189737736,2.13696739000144,19.102489,819.096985,155.274704,101.175545,1182.865967,-35.013584,"LATERAL"
31,17,18,2.057,5745.26,-0.411213,0.406979,-0.532466,0.61786,-0.93012,0.31644,-0.09433,5742.02,-0.056751,-0.757461,-0.003518,-0.650399,-0.98471,0.05516,0.13175,2.29,2.49,2.36,3.1,3.22,3,2.76,3.88,3.23,3.88,4.03,3.89,3.9,3.87,3.7,2246,9.358333,62282.058333,9.864601,949.121277,-195.109314,1.88380537824175,2.47368190092397,2.13812033650117,18.999739,819.130249,155.15152,101.576279,1182.960449,-35.057011,"LATERAL"
32,17,18,2.062,5745.28,-0.411016,0.406907,-0.532015,0.618428,-0.92916,0.31733,-0.09945,5742.04,-0.055976,-0.757819,-0.002249,-0.650055,-0.98347,0.05266,0.13109,2.3,2.49,2.36,3.1,3.22,3,2.77,3.88,3.22,3.88,4.02,3.87,3.9,3.88,3.69,2247,9.3625,62282.0625,9.968115,949.171387,-195.173752,1.88378583884447,2.47347757655909,2.13835218580071,18.985205,819.134705,155.136032,101.677383,1182.980835,-35.057758,"LATERAL"
33,17,18,2.096,5745.3,-0.411139,0.406578,-0.531635,0.618889,-0.9311,0.31065,-0.10986,5742.06,-0.055155,-0.758209,-0.000896,-0.649675,-0.98497,0.05268,0.1281,2.3,2.49,2.36,3.1,3.22,3,2.78,3.88,3.21,3.88,4.01,3.85,3.89,3.88,3.7,2256,9.4,62282.1,11.02204,949.669189,-195.69426,1.88288744431404,2.47173715066886,2.14079725934874,18.935932,819.182007,155.000992,102.473228,1183.148315,-34.970734,"LATERAL"
34,17,18,2.101,5745.32,-0.411389,0.406092,-0.531539,0.619124,-0.93066,0.30767,-0.11098,5742.08,-0.054593,-0.7585,0.000395,-0.649382,-0.98042,0.0603,0.1307,2.31,2.49,2.36,3.1,3.22,3,2.78,3.88,3.2,3.89,4.01,3.83,3.88,3.88,3.7,2257,9.404167,62282.104167,11.134459,949.718628,-195.750229,1.88268947732828,2.47162346326875,2.1410463246656,18.93907,819.187378,154.998444,102.526436,1183.168823,-34.9697,"LATERAL"
35,17,18,2.136,5745.34,-0.411694,0.405645,-0.531563,0.619194,-0.92833,0.31149,-0.1164,5742.1,-0.054047,-0.758501,0.001481,-0.649425,-0.96678,0.06323,0.13913,2.31,2.49,2.36,3.1,3.22,3,2.79,3.88,3.2,3.89,4,3.82,3.87,3.88,3.7,2265,9.4375,62282.1375,12.041973,949.900024,-196.218658,1.87995740417503,2.47138894110576,2.14304493725838,19.004482,819.230896,154.968796,102.65583,1183.298218,-34.943352,"LATERAL"
36,17,18,2.142,5745.36,-0.411971,0.405309,-0.531651,0.619154,-0.92449,0.32094,-0.1111,5742.12,-0.053609,-0.758227,0.002504,-0.649779,-0.95386,0.06116,0.14961,2.32,2.49,2.36,3.1,3.22,3,2.79,3.88,3.19,3.89,4,3.8,3.86,3.88,3.7,2267,9.445833,62282.145833,12.225535,949.868042,-196.312256,1.87913479845978,2.4715616154755,2.14338336013306,19.026527,819.232544,154.967484,102.608795,1183.30542,-34.94722,"LATERAL"
37,17,18,2.174,5745.38,-0.412244,0.405076,-0.531779,0.619015,-0.92343,0.32751,-0.10364,5742.14,-0.053069,-0.757732,0.003487,-0.650395,-0.94713,0.06016,0.16349,2.32,2.48,2.36,3.09,3.22,3,2.79,3.88,3.18,3.89,3.99,3.78,3.86,3.88,3.7,2274,9.475,62282.175,12.681531,949.572876,-196.551025,1.87623391641409,2.47273147208155,2.14396758814314,19.080767,819.205139,154.98111,102.245773,1183.238403,-35.031517,"LATERAL"
38,17,18,2.195,5745.4,-0.412443,0.404896,-0.531857,0.618933,-0.92463,0.33167,-0.10217,5742.16,-0.052548,-0.757312,0.004071,-0.650923,-0.94278,0.06294,0.17163,2.33,2.48,2.36,3.09,3.21,3,2.8,3.88,3.18,3.89,3.98,3.77,3.86,3.88,3.7,2279,9.495833,62282.195833,12.823146,949.223022,-196.637589,1.8743984518574,2.47389369560881,2.14387929733651,19.079039,819.148315,154.989548,101.869667,1183.113037,-35.133274,"LATERAL"
39,17,18,2.201,5745.42,-0.412662,0.404814,-0.531753,0.61893,-0.92126,0.32962,-0.10371,5742.18,-0.052149,-0.756771,0.004468,-0.651581,-0.94925,0.05957,0.16541,2.33,2.48,2.36,3.09,3.21,3,2.8,3.89,3.17,3.89,3.97,3.75,3.86,3.88,3.7,2281,9.504167,62282.204167,12.85774,949.054932,-196.651825,1.87372662578913,2.47445115931189,2.14370471906752,19.06146,819.123474,155.003296,101.719269,1183.063477,-35.180332,"LATERAL"
40,17,18,2.235,5745.44,-0.412813,0.404741,-0.531669,0.618949,-0.92348,0.32905,-0.10134,5742.2,-0.051721,-0.75631,0.00448,-0.652151,-0.96249,0.05723,0.15873,2.34,2.48,2.36,3.09,3.21,3,2.8,3.89,3.16,3.9,3.98,3.75,3.86,3.88,3.71,2289,9.5375,62282.2375,12.872389,948.303406,-196.62709,1.87126893382812,2.47677002031922,2.14276207366737,18.918123,818.998535,155.033325,101.044289,1182.763672,-35.374454,"LATERAL"
41,17,18,2.24,5745.46,-0.412794,0.404614,-0.531744,0.61898,-0.9191,0.3226,-0.10726,5742.22,-0.05124,-0.755797,0.004492,-0.652782,-0.96999,0.05692,0.15897,2.34,2.47,2.36,3.08,3.21,3,2.81,3.89,3.15,3.9,3.97,3.74,3.86,3.88,3.71,2290,9.541667,62282.241667,12.856025,948.215271,-196.612518,1.87106962624262,2.47705604353321,2.14258071982847,18.888382,818.987732,155.038879,100.96756,1182.718384,-35.411987,"LATERAL"
42,17,18,2.275,5745.48,-0.412856,0.404527,-0.53185,0.618905,-0.91959,0.31897,-0.11243,5742.24,-0.050607,-0.755373,0.004347,-0.653324,-0.97525,0.05711,0.15628,2.35,2.47,2.36,3.07,3.21,3,2.82,3.89,3.13,3.91,3.96,3.74,3.86,3.88,3.71,2298,9.575,62282.275,12.681107,947.5271,-196.454361,1.8695986533182,2.47933431914344,2.14106191012009,18.652172,818.879822,155.059113,100.372993,1182.445557,-35.636265,"LATERAL"
43,17,18,2.28,5745.5,-0.41298,0.404482,-0.531924,0.618789,-0.92064,0.31517,-0.11436,5742.26,-0.049679,-0.755135,0.003999,-0.653673,-0.98704,0.05378,0.15086,2.35,2.47,2.36,3.07,3.21,3,2.83,3.89,3.13,3.91,3.96,3.74,3.87,3.88,3.71,2300,9.583333,62282.283333,12.629239,947.385681,-196.405258,1.86927550675077,2.47987049340001,2.14068974206838,18.586607,818.856567,155.056595,100.229179,1182.402466,-35.680393,"LATERAL"
44,17,18,2.316,5745.52,-0.412928,0.404494,-0.532096,0.618667,-0.92165,0.31553,-0.11548,5742.28,-0.048695,-0.754977,0.003791,-0.65393,-0.99454,0.05062,0.14912,2.36,2.47,2.36,3.07,3.21,3,2.84,3.89,3.11,3.92,3.96,3.74,3.87,3.88,3.71,2308,9.616667,62282.316667,12.412428,946.977539,-196.158752,1.86872887906726,2.48148969494784,2.139299545028,18.350914,818.729431,155.056046,99.85495,1182.285645,-35.785965,"LATERAL"
45,17,18,2.321,5745.54,-0.412915,0.404465,-0.532326,0.618497,-0.92353,0.31651,-0.11829,5742.3,-0.047724,-0.754976,0.003386,-0.654005,-0.99172,0.05783,0.15342,2.36,2.47,2.36,3.07,3.21,3,2.84,3.89,3.1,3.92,3.96,3.74,3.88,3.88,3.7,2310,9.625,62282.325,12.34279,946.928833,-196.102295,1.86880063894288,2.48169719461531,2.13903359736319,18.298256,818.702881,155.063263,99.804047,1182.270264,-35.799389,"LATERAL"
46,17,18,2.354,5745.56,-0.412974,0.404465,-0.532587,0.618233,-0.92847,0.31644,-0.11145,5742.32,-0.047011,-0.755017,0.003088,-0.654011,-0.98685,0.07038,0.15217,2.36,2.47,2.36,3.07,3.21,3,2.85,3.89,3.09,3.92,3.96,3.74,3.88,3.88,3.7,2317,9.654167,62282.354167,12.001945,946.900024,-195.918854,1.86966896110248,2.48177583863002,2.1384114417032,18.207899,818.638,155.061829,99.711441,1182.258545,-35.770325,"LATERAL"
47,17,18,2.376,5745.58,-0.412947,0.404411,-0.532907,0.61801,-0.92913,0.31702,-0.11138,5742.34,-0.046852,-0.755189,0.002726,-0.653825,-0.9771,0.08594,0.15175,2.36,2.47,2.36,3.06,3.2,3,2.85,3.89,3.07,3.93,3.95,3.74,3.88,3.89,3.7,2323,9.679167,62282.379167,11.567086,946.995667,-195.811142,1.871377106043,2.4811198895287,2.13804933147254,18.215748,818.64502,155.03627,99.769318,1182.251953,-35.741608,"LATERAL"
48,17,18,2.381,5745.6,-0.412792,0.404479,-0.533247,0.617776,-0.9266,0.31874,-0.10632,5742.36,-0.047716,-0.755507,0.002288,-0.653396,-0.96887,0.08946,0.14739,2.36,2.47,2.36,3.06,3.2,3,2.85,3.89,3.06,3.93,3.96,3.74,3.87,3.88,3.71,2324,9.683333,62282.383333,11.493696,947.024475,-195.802475,1.87170884878071,2.4809347619268,2.13804013279861,18.223179,818.655457,155.029999,99.789459,1182.244629,-35.736813,"LATERAL"
49,17,18,2.417,5745.62,-0.412604,0.404567,-0.533498,0.617627,-0.92536,0.32134,-0.10039,5742.38,-0.048961,-0.755849,0.001831,-0.65291,-0.97212,0.07486,0.13611,2.36,2.47,2.36,3.06,3.2,3,2.86,3.89,3.04,3.93,3.95,3.73,3.88,3.88,3.7,2333,9.720833,62282.420833,10.90721,947.331848,-195.809662,1.87433793407215,2.47921057070262,2.13823585277994,18.376459,818.716736,154.963623,99.955399,1182.248901,-35.686352,"LATERAL"
50,17,18,2.422,5745.64,-0.412341,0.404753,-0.533643,0.617556,-0.92664,0.32281,-0.09935,5742.4,-0.050264,-0.75615,0.001547,-0.652463,-0.98357,0.05661,0.12983,2.36,2.47,2.36,3.05,3.2,3,2.86,3.89,3.03,3.93,3.96,3.73,3.87,3.88,3.7,2334,9.725,62282.425,10.849639,947.370728,-195.813263,1.87460854039229,2.47899318100438,2.13829809233679,18.393871,818.72467,154.955276,99.973221,1182.243896,-35.677078,"LATERAL"
51,17,18,2.453,5745.66,-0.411945,0.405075,-0.533789,0.617482,-0.93187,0.32819,-0.08962,5742.42,-0.05162,-0.756372,0.001378,-0.652101,-0.98481,0.05746,0.12652,2.37,2.47,2.36,3.04,3.2,3,2.86,3.89,3.02,3.93,3.96,3.73,3.87,3.88,3.7,2341,9.754167,62282.454167,10.590673,947.598877,-195.883011,1.87591039664226,2.47785845639538,2.13869110093861,18.543962,818.766235,154.923798,100.08532,1182.266724,-35.646206,"LATERAL"
52,17,18,2.475,5745.68,-0.411705,0.405279,-0.533659,0.617622,-0.93188,0.3275,-0.09133,5742.44,-0.052783,-0.756495,0.001285,-0.651865,-0.97965,0.05584,0.12303,2.37,2.47,2.36,3.04,3.19,3,2.86,3.89,3.02,3.93,3.96,3.73,3.87,3.88,3.7,2346,9.775,62282.475,10.506908,947.723389,-195.952438,1.87651177870926,2.47731406392699,2.1388934333114,18.625164,818.800415,154.909424,100.174095,1182.295654,-35.661835,"LATERAL"
53,17,18,2.481,5745.7,-0.411475,0.405495,-0.533545,0.617732,-0.93058,0.32622,-0.09234,5742.46,-0.053287,-0.75643,0.001291,-0.651899,-0.97719,0.04874,0.12519,2.37,2.47,2.36,3.03,3.19,3,2.86,3.89,3.01,3.94,3.96,3.74,3.87,3.88,3.7,2348,9.783333,62282.483333,10.490073,947.755188,-195.983337,1.87667116025619,2.47714946546328,2.13896871651994,18.654789,818.813477,154.898651,100.203903,1182.300781,-35.671394,"LATERAL"
54,17,18,2.516,5745.72,-0.411326,0.405602,-0.533296,0.617975,-0.92735,0.32549,-0.09565,5742.48,-0.053698,-0.756401,0.001451,-0.651899,-0.97067,0.05164,0.13314,2.38,2.47,2.36,3.02,3.19,2.99,2.87,3.89,3,3.93,3.96,3.73,3.87,3.88,3.7,2356,9.816667,62282.516667,10.43637,947.820679,-196.075562,1.87727678108976,2.47673702899365,2.1390264365416,18.701721,818.86261,154.859756,100.325859,1182.299927,-35.742668,"LATERAL"
55,17,18,2.521,5745.74,-0.411162,0.40572,-0.533048,0.618221,-0.92545,0.32556,-0.0987,5742.5,-0.053484,-0.75642,0.001249,-0.651894,-0.96638,0.05851,0.14092,2.38,2.47,2.36,3.02,3.19,2.99,2.87,3.89,3,3.93,3.96,3.73,3.87,3.88,3.7,2358,9.825,62282.525,10.4231,947.818298,-196.095352,1.87741924609488,2.47671465553298,2.13896001873808,18.702351,818.871765,154.853516,100.353065,1182.293457,-35.779121,"LATERAL"
56,17,18,2.557,5745.76,-0.410992,0.405851,-0.532883,0.61839,-0.92458,0.32399,-0.10304,5742.52,-0.053706,-0.756481,0.00127,-0.651805,-0.96948,0.0592,0.13871,2.38,2.47,2.36,3.01,3.18,2.99,2.87,3.89,2.99,3.93,3.96,3.74,3.87,3.88,3.7,2366,9.858333,62282.558333,10.365509,947.736084,-196.160385,1.87738405094218,2.47685463903593,2.13883248605184,18.648848,818.897888,154.832718,100.289162,1182.246582,-35.869614,"LATERAL"
57,17,18,2.563,5745.78,-0.41089,0.405926,-0.532699,0.618568,-0.92815,0.32178,-0.10772,5742.54,-0.053865,-0.756454,0.001278,-0.651823,-0.97342,0.06447,0.13926,2.39,2.47,2.36,3.01,3.18,2.99,2.87,3.89,2.98,3.93,3.96,3.74,3.87,3.88,3.7,2368,9.866667,62282.566667,10.355858,947.699768,-196.180313,1.87719938721689,2.4770058357882,2.13878775450888,18.634047,818.891968,154.818481,100.225365,1182.233643,-35.90379,"LATERAL"
58,17,18,2.61,5745.8,-0.411076,0.405989,-0.53238,0.618676,-0.92681,0.31717,-0.10908,5742.56,-0.053432,-0.756338,0.00103,-0.651995,-0.97194,0.06379,0.14099,2.39,2.47,2.37,3,3.18,2.98,2.87,3.88,2.98,3.93,3.96,3.74,3.87,3.88,3.69,2379,9.9125,62282.6125,10.376067,947.444885,-196.280167,1.877136170769,2.47756465657105,2.13822952279338,18.479654,818.840515,154.72757,100.229958,1182.087524,-36.139702,"LATERAL"
59,17,18,2.615,5745.82,-0.411082,0.405938,-0.532376,0.61871,-0.92458,0.31904,-0.11255,5742.58,-0.053198,-0.756294,0.001249,-0.652065,-0.9672,0.05741,0.14071,2.39,2.47,2.37,2.99,3.17,2.98,2.87,3.88,2.97,3.94,3.96,3.74,3.87,3.88,3.7,2380,9.916667,62282.616667,10.39751,947.424133,-196.28624,1.87719436132561,2.47760714737087,2.13814710106304,18.466639,818.843079,154.721649,100.269058,1182.077515,-36.164478,"LATERAL"
60,17,18,2.634,5745.84,-0.411143,0.405822,-0.532421,0.618706,-0.92294,0.3204,-0.10791,5742.6,-0.052475,-0.756339,0.001477,-0.65207,-0.97412,0.05411,0.13262,2.39,2.47,2.37,2.99,3.17,2.98,2.87,3.88,2.97,3.94,3.96,3.74,3.87,3.88,3.7,2385,9.9375,62282.6375,10.585756,947.363159,-196.332932,1.87732530441327,2.4777615279479,2.13789864935816,18.416496,818.853394,154.694809,100.493393,1182.041992,-36.275578,"LATERAL"
61,17,18,2.654,5745.86,-0.411251,0.405727,-0.532489,0.618639,-0.92125,0.32108,-0.10875,5742.62,-0.051932,-0.756646,0.001719,-0.651757,-0.9914,0.05148,0.12006,2.39,2.47,2.37,2.99,3.17,2.98,2.87,3.88,2.96,3.94,3.96,3.74,3.87,3.89,3.7,2389,9.954167,62282.654167,10.824475,947.360474,-196.398804,1.87699554162203,2.47780266027118,2.13806385979011,18.397524,818.866638,154.687454,100.639374,1182.049316,-36.298256,"LATERAL"
62,17,18,2.658,5745.88,-0.411318,0.405611,-0.532621,0.618557,-0.92325,0.31867,-0.10688,5742.64,-0.05125,-0.756857,0.002027,-0.651565,-1.00276,0.05457,0.12388,2.39,2.48,2.37,2.98,3.17,2.97,2.86,3.88,2.96,3.94,3.96,3.74,3.87,3.88,3.69,2390,9.958333,62282.658333,10.884996,947.371399,-196.411346,1.87693510234439,2.47777385344604,2.13813303553687,18.399271,818.869873,154.68396,100.681969,1182.052979,-36.294762,"LATERAL"
63,17,18,2.694,5745.9,-0.411401,0.4055,-0.532885,0.618347,-0.92261,0.31503,-0.10632,5742.66,-0.050254,-0.756816,0.002372,-0.651688,-0.9986,0.05687,0.13715,2.39,2.48,2.38,2.97,3.16,2.97,2.86,3.88,2.95,3.94,3.96,3.75,3.87,3.89,3.7,2399,9.995833,62282.695833,11.433576,947.489441,-196.510849,1.87560801498983,2.47775761670344,2.13898997616686,18.458914,818.909119,154.702881,100.85965,1182.184326,-36.16787,"LATERAL"
64,17,18,2.716,5745.92,-0.411534,0.40528,-0.533162,0.618163,-0.92622,0.31998,-0.10327,5742.68,-0.049338,-0.756678,0.002815,-0.651918,-0.9801,0.06496,0.15069,2.39,2.48,2.38,2.97,3.15,2.97,2.86,3.88,2.95,3.94,3.96,3.74,3.87,3.88,3.69,2404,10.016667,62282.716667,11.625149,947.533813,-196.501526,1.87494961795083,2.47789345558338,2.1392597813657,18.519194,818.94519,154.710022,100.862587,1182.249756,-36.093441,"LATERAL"
65,17,18,2.721,5745.94,-0.411641,0.405108,-0.53334,0.618052,-0.92864,0.32814,-0.10055,5742.7,-0.048669,-0.756616,0.002934,-0.652039,-0.96125,0.06653,0.15751,2.39,2.48,2.38,2.96,3.14,2.97,2.86,3.88,2.94,3.94,3.96,3.75,3.87,3.88,3.69,2406,10.025,62282.725,11.670226,947.531006,-196.483902,1.87472683460346,2.47800000170422,2.13928609106306,18.552408,818.948303,154.702988,100.84478,1182.2677,-36.068394,"LATERAL"
66,17,18,2.755,5745.96,-0.411542,0.405034,-0.533521,0.61801,-0.92515,0.33001,-0.09889,5742.72,-0.048334,-0.756472,0.003008,-0.652231,-0.95464,0.06185,0.15758,2.39,2.47,2.38,2.96,3.13,2.97,2.86,3.88,2.94,3.94,3.96,3.75,3.87,3.88,3.69,2414,10.058333,62282.758333,11.754918,947.418274,-196.356934,1.87430521919845,2.47864384019084,2.13886271354401,18.669579,818.943176,154.697006,100.809402,1182.272583,-36.048096,"LATERAL"
67,17,18,2.775,5745.98,-0.41156,0.405022,-0.533485,0.618037,-0.92678,0.32755,-0.09794,5742.74,-0.048194,-0.75643,0.002889,-0.65229,-0.96005,0.05793,0.15404,2.4,2.47,2.38,2.95,3.12,2.97,2.86,3.88,2.94,3.94,3.96,3.75,3.88,3.88,3.69,2418,10.075,62282.775,11.762206,947.338135,-196.30896,1.87408650100077,2.47894398954294,2.13867918369748,18.699034,818.925354,154.696701,100.755035,1182.248901,-36.04525,"LATERAL"
68,17,18,2.78,5746,-0.411347,0.405295,-0.53372,0.617796,-0.92608,0.32642,-0.09659,5742.76,-0.048064,-0.756635,0.002319,-0.652065,-0.96598,0.06203,0.14877,2.4,2.47,2.38,2.94,3.11,2.96,2.86,3.88,2.93,3.94,3.96,3.75,3.88,3.88,3.69,2420,10.083333,62282.783333,11.763727,947.293823,-196.293106,1.8739508142928,2.47908631296887,2.13861222895316,18.707415,818.921509,154.704102,100.718353,1182.231689,-36.045525,"LATERAL"
69,17,18,2.817,5746.02,-0.411341,0.405342,-0.533668,0.617814,-0.92571,0.32209,-0.09738,5742.78,-0.047959,-0.756586,0.002265,-0.652129,-0.976,0.06137,0.14117,2.4,2.47,2.38,2.93,3.1,2.96,2.86,3.88,2.94,3.94,3.96,3.75,3.88,3.88,3.69,2429,10.120833,62282.820833,11.783526,947.134949,-196.257645,1.87313413038591,2.4797038776388,2.1384643554156,18.683594,818.901062,154.744919,100.506866,1182.188599,-36.045414,"LATERAL"
70,17,18,2.822,5746.04,-0.411314,0.405381,-0.533558,0.617902,-0.92362,0.32014,-0.10324,5742.8,-0.047585,-0.756419,0.002337,-0.65235,-0.98223,0.06131,0.13667,2.41,2.47,2.39,2.92,3.08,2.96,2.86,3.88,2.94,3.94,3.96,3.75,3.88,3.88,3.69,2430,10.125,62282.825,11.791078,947.123047,-196.25824,1.87302627751113,2.47974251812841,2.13849064569468,18.67808,818.891174,154.7453,100.483025,1182.181885,-36.040691,"LATERAL"
71,17,18,2.856,5746.06,-0.411305,0.40547,-0.533434,0.617956,-0.92064,0.32082,-0.10327,5742.82,-0.047369,-0.756239,0.002566,-0.652574,-0.9808,0.06023,0.13982,2.4,2.47,2.39,2.92,3.06,2.96,2.86,3.88,2.93,3.94,3.96,3.75,3.88,3.88,3.69,2438,10.158333,62282.858333,11.843086,947.072815,-196.278564,1.87226380706582,2.47996460412977,2.1387305207304,18.535227,818.859375,154.763641,100.321709,1182.181885,-35.994232,"LATERAL"
72,17,18,2.861,5746.08,-0.411293,0.405512,-0.533384,0.61798,-0.92126,0.32143,-0.10831,5742.84,-0.047254,-0.756077,0.002773,-0.652768,-0.97355,0.06056,0.14795,2.4,2.47,2.4,2.91,3.04,2.96,2.86,3.88,2.93,3.94,3.96,3.75,3.88,3.88,3.69,2439,10.1625,62282.8625,11.847361,947.075195,-196.285614,1.87218190206817,2.47995736617274,2.13878946391155,18.518806,818.840942,154.760269,100.300995,1182.178467,-35.989525,"LATERAL"
73,17,18,2.896,5746.1,-0.411387,0.405503,-0.533261,0.61803,-0.92501,0.32138,-0.10978,5742.86,-0.047298,-0.756199,0.002706,-0.652625,-0.97337,0.06262,0.15529,2.4,2.46,2.4,2.9,3.01,2.97,2.86,3.88,2.93,3.94,3.96,3.75,3.88,3.89,3.69,2448,10.2,62282.9,11.740883,947.167969,-196.350342,1.8723401840706,2.47933616848381,2.13935451104078,18.298599,818.767273,154.742859,100.240982,1182.161255,-35.909756,"LATERAL"
74,17,18,2.901,5746.12,-0.411359,0.40554,-0.533265,0.618021,-0.9269,0.32021,-0.1108,5742.88,-0.04743,-0.756252,0.002941,-0.652552,-0.97632,0.06468,0.15618,2.4,2.46,2.4,2.9,3,2.96,2.86,3.88,2.93,3.94,3.96,3.75,3.88,3.88,3.69,2449,10.204167,62282.904167,11.716737,947.187683,-196.351349,1.87244534768033,2.47922514730688,2.13940742590965,18.281769,818.760803,154.742493,100.246628,1182.160278,-35.897713,"LATERAL"
75,17,18,2.935,5746.14,-0.411365,0.405507,-0.533318,0.617993,-0.92697,0.3181,-0.10922,5742.9,-0.047748,-0.756495,0.002867,-0.652247,-0.97515,0.06508,0.15517,2.4,2.46,2.41,2.9,2.99,2.96,2.86,3.88,2.93,3.94,3.96,3.75,3.88,3.88,3.69,2457,10.2375,62282.9375,11.39493,947.358887,-196.281631,1.87396469505144,2.47827881278791,2.13946707283241,18.165319,818.706238,154.768433,100.353043,1182.147461,-35.82019,"LATERAL"
76,17,18,2.954,5746.16,-0.411645,0.405557,-0.533245,0.617836,-0.92409,0.31583,-0.10908,5742.92,-0.048225,-0.756737,0.002759,-0.651933,-0.97309,0.06233,0.14807,2.39,2.47,2.42,2.89,2.98,2.97,2.86,3.88,2.93,3.94,3.96,3.76,3.88,3.89,3.69,2461,10.254167,62282.954167,11.231542,947.437927,-196.230606,1.87477755168453,2.47787178790794,2.1393912965394,18.153715,818.708313,154.782562,100.417282,1182.142578,-35.794498,"LATERAL"
77,17,18,2.977,5746.18,-0.411704,0.405496,-0.533439,0.61767,-0.92477,0.31798,-0.1057,5742.94,-0.048791,-0.756972,0.002578,-0.651619,-0.97573,0.05866,0.13872,2.39,2.47,2.42,2.89,2.97,2.97,2.86,3.88,2.94,3.94,3.96,3.76,3.88,3.88,3.69,2467,10.279167,62282.979167,10.997725,947.526245,-196.148895,1.87574786193797,2.47742760899427,2.13925478410091,18.183563,818.724182,154.799957,100.458984,1182.14856,-35.747597,"LATERAL"
78,17,18,2.982,5746.2,-0.411697,0.405456,-0.533701,0.617475,-0.92439,0.32096,-0.10271,5742.96,-0.04924,-0.757062,0.00231,-0.65148,-0.97562,0.05598,0.13374,2.38,2.47,2.43,2.89,2.97,2.96,2.86,3.88,2.94,3.94,3.96,3.76,3.88,3.88,3.69,2468,10.283333,62282.983333,10.96166,947.5354,-196.136047,1.87590639665337,2.47737524784517,2.13921070145711,18.19268,818.732056,154.807602,100.469269,1182.151489,-35.7435,"LATERAL"
79,17,18,3.015,5746.22,-0.411758,0.405416,-0.53387,0.617314,-0.92491,0.32731,-0.09905,5742.98,-0.049803,-0.757132,0.002047,-0.651358,-0.97463,0.05329,0.12959,2.37,2.47,2.44,2.9,2.96,2.97,2.86,3.88,2.94,3.95,3.96,3.76,3.88,3.88,3.69,2476,10.316667,62283.016667,10.798347,947.553467,-196.035019,1.87646407608006,2.47731334488847,2.1389243901101,18.296545,818.766479,154.801239,100.465935,1182.162109,-35.711693,"LATERAL"
80,17,18,3.038,5746.24,-0.411796,0.40539,-0.533994,0.617198,-0.92826,0.32856,-0.09617,5743,-0.049881,-0.756975,0.001859,-0.651534,-0.97351,0.05544,0.12999,2.37,2.47,2.44,2.9,2.96,2.97,2.86,3.89,2.94,3.95,3.96,3.76,3.88,3.89,3.69,2482,10.341667,62283.041667,10.759137,947.528076,-195.982712,1.8765073134102,2.47748993744605,2.13870801387964,18.378252,818.77594,154.790771,100.440331,1182.172607,-35.711376,"LATERAL"
81,17,18,3.043,5746.26,-0.411629,0.405539,-0.534228,0.617009,-0.92979,0.3275,-0.09358,5743.02,-0.050196,-0.756941,0.001741,-0.65155,-0.9725,0.05924,0.13285,2.36,2.47,2.45,2.91,2.96,2.97,2.86,3.88,2.94,3.94,3.96,3.76,3.88,3.88,3.69,2483,10.345833,62283.045833,10.753815,947.521179,-195.979919,1.87651470948673,2.47750407313341,2.13868820144642,18.391035,818.780273,154.790466,100.438988,1182.173218,-35.710205,"LATERAL"
82,17,18,3.092,5746.28,-0.411599,0.405592,-0.534179,0.617037,-0.93079,0.32649,-0.09279,5743.04,-0.050361,-0.756887,0.001682,-0.6516,-0.97545,0.05967,0.13581,2.35,2.47,2.45,2.92,2.95,2.97,2.86,3.88,2.95,3.95,3.96,3.76,3.88,3.88,3.69,2495,10.395833,62283.095833,10.793124,947.467224,-195.948074,1.87593746835172,2.47786227721193,2.13866990421741,18.460709,818.742126,154.778046,100.31617,1182.190063,-35.679523,"LATERAL"
83,17,18,3.098,5746.3,-0.411464,0.405685,-0.534179,0.617066,-0.92796,0.32401,-0.09417,5743.06,-0.049712,-0.756649,0.001447,-0.651927,-0.97878,0.05767,0.13907,2.34,2.47,2.45,2.92,2.95,2.97,2.86,3.88,2.95,3.95,3.96,3.76,3.88,3.88,3.69,2496,10.4,62283.1,10.795475,947.463257,-195.940582,1.87589478994806,2.47789977698478,2.13865674072657,18.461887,818.737244,154.776093,100.306908,1182.194336,-35.674412,"LATERAL"
84,17,18,3.116,5746.32,-0.411416,0.405742,-0.534011,0.617206,-0.92421,0.323,-0.09717,5743.08,-0.049622,-0.756559,0.001529,-0.652039,-0.98376,0.05734,0.1434,2.34,2.47,2.45,2.93,2.94,2.97,2.86,3.88,2.95,3.95,3.96,3.76,3.89,3.88,3.69,2500,10.416667,62283.116667,10.802479,947.497131,-195.899902,1.87575665104691,2.47790137157851,2.13874230313774,18.438881,818.724976,154.788025,100.272141,1182.221924,-35.61673,"LATERAL"
85,17,18,3.136,5746.34,-0.411359,0.405816,-0.533861,0.617325,-0.9247,0.3208,-0.10088,5743.1,-0.049374,-0.756674,0.001197,-0.651924,-0.98436,0.05947,0.14833,2.34,2.47,2.45,2.93,2.93,2.97,2.86,3.89,2.95,3.94,3.96,3.76,3.89,3.89,3.69,2505,10.4375,62283.1375,10.757958,947.565063,-195.813721,1.8759234207898,2.47778248656378,2.13876417374798,18.39076,818.716614,154.810242,100.275452,1182.269165,-35.524281,"LATERAL"
86,17,18,3.141,5746.36,-0.41126,0.405965,-0.533881,0.617275,-0.92385,0.32047,-0.10053,5743.12,-0.049273,-0.756625,0.001246,-0.651988,-0.9822,0.06144,0.15505,2.34,2.46,2.45,2.93,2.93,2.97,2.86,3.89,2.95,3.95,3.96,3.76,3.88,3.88,3.69,2506,10.441667,62283.141667,10.74649,947.587097,-195.790405,1.87598507087728,2.47775430953933,2.13875536917044,18.384256,818.70813,154.818802,100.278473,1182.278076,-35.508606,"LATERAL"
87,17,18,3.175,5746.38,-0.411225,0.40604,-0.533906,0.617227,-0.92296,0.32141,-0.10601,5743.14,-0.049156,-0.756664,0.001243,-0.651952,-0.9732,0.06503,0.15625,2.34,2.46,2.45,2.93,2.92,2.97,2.86,3.88,2.95,3.94,3.96,3.76,3.88,3.89,3.69,2515,10.479167,62283.179167,10.548107,947.729187,-195.627823,1.87698368624974,2.47716611099332,2.13875292552805,18.25363,818.666748,154.889084,100.36058,1182.303589,-35.352478,"LATERAL"
88,17,18,3.198,5746.4,-0.411266,0.406067,-0.533959,0.617137,-0.92498,0.32073,-0.10854,5743.16,-0.049103,-0.756973,0.001003,-0.651598,-0.96364,0.06614,0.15076,2.34,2.46,2.45,2.94,2.92,2.97,2.86,3.88,2.95,3.95,3.96,3.77,3.89,3.89,3.68,2520,10.5,62283.2,10.442673,947.75238,-195.556335,1.87755490005821,2.47684708696137,2.13873213951014,18.16983,818.629089,154.921555,100.418175,1182.270142,-35.284855,"LATERAL"
89,17,18,3.204,5746.42,-0.411298,0.406069,-0.534072,0.617016,-0.92533,0.32063,-0.10831,5743.18,-0.04908,-0.757209,0.001012,-0.651325,-0.96007,0.06095,0.13831,2.34,2.46,2.46,2.93,2.92,2.97,2.86,3.89,2.95,3.95,3.96,3.77,3.89,3.88,3.68,2521,10.504167,62283.204167,10.427106,947.750366,-195.541687,1.8776033702978,2.4768024213292,2.13874919028902,18.152966,818.621521,154.929871,100.416458,1182.260132,-35.265778,"LATERAL"
90,17,18,3.237,5746.44,-0.411316,0.406088,-0.534156,0.616919,-0.92651,0.32188,-0.10664,5743.2,-0.048487,-0.757101,0.001217,-0.651495,-0.96732,0.05509,0.12915,2.34,2.46,2.46,2.93,2.92,2.97,2.86,3.89,2.96,3.95,3.96,3.76,3.89,3.89,3.68,2529,10.5375,62283.2375,10.384514,947.645325,-195.471603,1.87783633574321,2.47680339419839,2.13860017321865,18.023441,818.54541,154.977844,100.442429,1182.161499,-35.22887,"LATERAL"
91,17,18,3.243,5746.46,-0.41128,0.406097,-0.534254,0.616852,-0.92412,0.32326,-0.10435,5743.22,-0.048377,-0.757191,0.001345,-0.651398,-0.96987,0.05172,0.12516,2.35,2.45,2.46,2.93,2.92,2.97,2.86,3.88,2.96,3.95,3.96,3.77,3.88,3.89,3.69,2531,10.545833,62283.245833,10.40781,947.594727,-195.459137,1.87773982524096,2.47690009654252,2.13855793776078,17.994579,818.526367,154.990585,100.438354,1182.128784,-35.22694,"LATERAL"
92,17,18,3.292,5746.48,-0.411306,0.406138,-0.534373,0.616704,-0.92519,0.3222,-0.10376,5743.24,-0.048025,-0.75719,0.001579,-0.651425,-0.97325,0.04982,0.12413,2.35,2.45,2.46,2.93,2.92,2.97,2.86,3.88,2.97,3.95,3.96,3.77,3.88,3.88,3.69,2543,10.595833,62283.295833,10.792039,947.191467,-195.437851,1.87653626775521,2.47787707059661,2.13827525412067,17.84124,818.417908,155.031586,100.487534,1181.922974,-35.264393,"LATERAL"
93,17,18,3.297,5746.5,-0.411389,0.406175,-0.534586,0.616441,-0.92545,0.31996,-0.09954,5743.26,-0.047235,-0.757013,0.001898,-0.651687,-0.97328,0.05345,0.12655,2.35,2.45,2.46,2.93,2.91,2.97,2.86,3.89,2.97,3.95,3.96,3.77,3.89,3.89,3.69,2544,10.6,62283.3,10.833107,947.154907,-195.439941,1.87644249933312,2.47795774579975,2.13824825704385,17.832367,818.412781,155.034622,100.503502,1181.905273,-35.270504,"LATERAL"
94,17,18,3.315,5746.52,-0.411477,0.406211,-0.534821,0.616154,-0.92665,0.3208,-0.09708,5743.28,-0.046629,-0.756943,0.002188,-0.651811,-0.97419,0.05952,0.13653,2.35,2.45,2.46,2.93,2.91,2.97,2.86,3.89,2.98,3.94,3.96,3.77,3.89,3.88,3.69,2548,10.616667,62283.316667,11.021424,947.017517,-195.457962,1.87599466063417,2.47831310889332,2.13815119179749,17.785532,818.377258,155.034851,100.569626,1181.846436,-35.303822,"LATERAL"
95,17,18,3.336,5746.54,-0.41154,0.406297,-0.53508,0.61583,-0.9243,0.32054,-0.09692,5743.3,-0.046127,-0.757004,0.002457,-0.651775,-0.97316,0.06801,0.14716,2.35,2.45,2.46,2.93,2.91,2.97,2.86,3.88,2.98,3.94,3.96,3.77,3.89,3.88,3.69,2553,10.6375,62283.3375,11.2262,946.910095,-195.521729,1.87561588540228,2.47845759661843,2.13823591704429,17.732721,818.342957,155.014786,100.673325,1181.782837,-35.334488,"LATERAL"
96,17,18,3.341,5746.56,-0.411559,0.406452,-0.535358,0.615473,-0.9278,0.32197,-0.09501,5743.32,-0.045756,-0.757176,0.002834,-0.6516,-0.97878,0.07281,0.14924,2.35,2.45,2.46,2.93,2.91,2.97,2.86,3.88,2.98,3.95,3.96,3.77,3.89,3.89,3.69,2554,10.641667,62283.341667,11.258779,946.895447,-195.536926,1.87558524287754,2.47845800335518,2.13825483574322,17.724056,818.333008,155.012024,100.700371,1181.776611,-35.339237,"LATERAL"
97,17,18,3.376,5746.58,-0.411529,0.406557,-0.535573,0.615237,-0.92674,0.31942,-0.09555,5743.34,-0.045589,-0.757378,0.003182,-0.651376,-0.98912,0.06981,0.1498,2.35,2.45,2.46,2.93,2.91,2.97,2.86,3.88,2.98,3.95,3.97,3.77,3.89,3.88,3.69,2563,10.679167,62283.379167,11.549447,946.942505,-195.668762,1.8754809323285,2.47799911984806,2.13881177369106,17.612974,818.308105,154.969864,100.967026,1181.754272,-35.320999,"LATERAL"
98,17,18,3.383,5746.6,-0.411452,0.406697,-0.535747,0.615044,-0.92746,0.32052,-0.09422,5743.36,-0.045487,-0.757605,0.00339,-0.651118,-0.98905,0.06445,0.14954,2.35,2.45,2.45,2.93,2.91,2.97,2.86,3.89,2.98,3.95,3.96,3.77,3.89,3.89,3.69,2564,10.683333,62283.383333,11.576881,946.96283,-195.680542,1.87550417719826,2.47792000640636,2.13888175659057,17.600847,818.305847,154.965546,101.000488,1181.758545,-35.316238,"LATERAL"
99,17,18,3.417,5746.62,-0.411375,0.406784,-0.535914,0.614893,-0.92777,0.32014,-0.09441,5743.38,-0.04546,-0.757782,0.003732,-0.650912,-0.98675,0.05615,0.14718,2.35,2.45,2.45,2.93,2.92,2.97,2.86,3.88,2.98,3.95,3.96,3.77,3.89,3.88,3.69,2573,10.720833,62283.420833,11.810883,947.210205,-195.758789,1.87571447777326,2.47695578239033,2.13978058764887,17.534479,818.290222,154.938019,101.287148,1181.810059,-35.181526,"LATERAL"
100,17,18,3.422,5746.64,-0.411342,0.40681,-0.536102,0.614734,-0.92941,0.31808,-0.0942,5743.4,-0.0455,-0.757868,0.00401,-0.650807,-0.98211,0.06044,0.14673,2.35,2.45,2.45,2.94,2.91,2.97,2.86,3.88,2.99,3.95,3.96,3.77,3.89,3.89,3.68,2574,10.725,62283.425,11.830594,947.239807,-195.768875,1.87575378848552,2.47681059541632,2.13991107583092,17.532307,818.286804,154.945526,101.317902,1181.812622,-35.159088,"LATERAL"
101,17,18,3.456,5746.66,-0.411346,0.406887,-0.53628,0.614525,-0.92946,0.31984,-0.09394,5743.42,-0.045748,-0.757905,0.004325,-0.650744,-0.97466,0.06611,0.1483,2.35,2.45,2.45,2.94,2.91,2.97,2.86,3.89,2.99,3.95,3.96,3.77,3.89,3.88,3.69,2582,10.758333,62283.458333,11.973528,947.481506,-195.795456,1.87611155185874,2.475856938564,2.14070518375128,17.519356,818.292236,154.967651,101.557137,1181.864746,-34.996044,"LATERAL"
102,17,18,3.46,5746.68,-0.411366,0.406907,-0.536376,0.614415,-0.92873,0.32307,-0.09284,5743.44,-0.046089,-0.757943,0.004708,-0.650673,-0.96926,0.06698,0.15018,2.35,2.45,2.45,2.93,2.92,2.97,2.86,3.89,2.99,3.95,3.96,3.77,3.89,3.89,3.69,2583,10.7625,62283.4625,11.986002,947.503479,-195.794785,1.87615873139361,2.475750231282,2.14078950627024,17.516575,818.293396,154.972702,101.585724,1181.874146,-34.969364,"LATERAL"
103,17,18,3.494,5746.7,-0.411367,0.406951,-0.536521,0.614258,-0.92737,0.32336,-0.09515,5743.46,-0.046558,-0.758065,0.005051,-0.650495,-0.96702,0.06428,0.15205,2.35,2.45,2.45,2.93,2.92,2.97,2.86,3.89,2.99,3.95,3.96,3.77,3.88,3.89,3.69,2591,10.795833,62283.495833,12.053779,947.70636,-195.799881,1.87671972047572,2.47467512913065,2.14158472740305,17.575483,818.304138,155.024567,101.819847,1181.896973,-34.762596,"LATERAL"
104,17,18,3.518,5746.72,-0.411425,0.406953,-0.536606,0.614144,-0.92632,0.32514,-0.09152,5743.48,-0.047211,-0.758132,0.005482,-0.650367,-0.97287,0.06676,0.14702,2.35,2.45,2.45,2.94,2.92,2.97,2.86,3.89,2.99,3.95,3.96,3.77,3.89,3.89,3.69,2597,10.820833,62283.520833,12.077318,947.832214,-195.787277,1.87723426748854,2.47398030199351,2.1420022935368,17.645987,818.314026,155.076645,101.993362,1181.904419,-34.638565,"LATERAL"
105,17,18,3.522,5746.74,-0.411483,0.406969,-0.536668,0.614041,-0.92686,0.32542,-0.0903,5743.5,-0.04786,-0.758122,0.005814,-0.650328,-0.97396,0.06815,0.1438,2.35,2.45,2.45,2.93,2.92,2.97,2.86,3.88,2.99,3.95,3.96,3.77,3.89,3.89,3.69,2598,10.825,62283.525,12.086613,947.851563,-195.79335,1.87728581923542,2.47390047967605,2.14205502017327,17.658321,818.31311,155.085297,102.020645,1181.917725,-34.625435,"LATERAL"
106,17,18,3.555,5746.76,-0.411301,0.407099,-0.536889,0.613883,-0.92716,0.3256,-0.09009,5743.52,-0.048501,-0.758043,0.0062,-0.65037,-0.98026,0.06381,0.14136,2.35,2.45,2.45,2.93,2.92,2.97,2.86,3.89,2.99,3.95,3.97,3.77,3.89,3.89,3.69,2606,10.858333,62283.558333,12.161036,948.047546,-195.827347,1.87759461519682,2.47309352615577,2.14272221265363,17.741386,818.33606,155.139175,102.187714,1181.977417,-34.483398,"LATERAL"
107,17,18,3.576,5746.78,-0.411334,0.40715,-0.536861,0.613851,-0.9261,0.3249,-0.08969,5743.54,-0.048861,-0.757799,0.006631,-0.650623,-0.98655,0.06245,0.14373,2.35,2.45,2.45,2.94,2.92,2.97,2.86,3.88,2.99,3.95,3.96,3.77,3.89,3.89,3.69,2611,10.879167,62283.579167,12.202865,948.182251,-195.832108,1.87780018274867,2.47268643914656,2.14302719832493,17.771696,818.366394,155.151505,102.289642,1182.04126,-34.408703,"LATERAL"
108,17,18,3.582,5746.8,-0.411228,0.407314,-0.536818,0.613851,-0.92592,0.32481,-0.09108,5743.56,-0.048822,-0.757522,0.006865,-0.650946,-0.98158,0.06369,0.14533,2.35,2.45,2.45,2.94,2.92,2.97,2.86,3.88,2.99,3.95,3.97,3.77,3.89,3.89,3.69,2612,10.883333,62283.583333,12.206115,948.213684,-195.830002,1.87787703914953,2.47263432649916,2.14303424926357,17.784977,818.367737,155.147263,102.316162,1182.066772,-34.402267,"LATERAL"
109,17,18,3.617,5746.82,-0.411153,0.407454,-0.536672,0.613936,-0.92646,0.3223,-0.09004,5743.58,-0.048884,-0.757341,0.006913,-0.65115,-0.98256,0.05811,0.14328,2.35,2.45,2.45,2.94,2.92,2.97,2.86,3.88,2.99,3.94,3.96,3.77,3.89,3.88,3.69,2621,10.920833,62283.620833,12.262096,948.493958,-195.717575,1.87826676103794,2.47211039304983,2.14334737900341,17.781956,818.389465,155.130936,102.470665,1182.218506,-34.233238,"LATERAL"
110,17,18,3.622,5746.84,-0.411051,0.407592,-0.536502,0.614062,-0.92854,0.31916,-0.09321,5743.6,-0.048985,-0.75727,0.006573,-0.65123,-0.97799,0.06637,0.14621,2.35,2.45,2.45,2.94,2.92,2.97,2.86,3.88,2.99,3.95,3.96,3.78,3.89,3.89,3.69,2622,10.925,62283.625,12.258789,948.526184,-195.695801,1.87834312678316,2.47206304460929,2.14334959838348,17.774408,818.393066,155.126648,102.488899,1182.241577,-34.211182,"LATERAL"
111,17,18,3.655,5746.86,-0.410976,0.407769,-0.536324,0.61415,-0.92911,0.31906,-0.09345,5743.62,-0.049245,-0.757193,0.0063,-0.651302,-0.97273,0.0723,0.14666,2.35,2.45,2.44,2.94,2.92,2.97,2.86,3.89,2.99,3.95,3.96,3.78,3.89,3.89,3.69,2630,10.958333,62283.658333,12.295724,948.769714,-195.626953,1.87864694745847,2.47154871399055,2.14370666458771,17.71756,818.38916,155.076675,102.608536,1182.380615,-34.059334,"LATERAL"
112,17,18,3.66,5746.88,-0.410916,0.407864,-0.536162,0.614268,-0.92862,0.31756,-0.09358,5743.64,-0.049425,-0.757193,0.006151,-0.65129,-0.96814,0.0671,0.14417,2.35,2.45,2.44,2.94,2.92,2.97,2.86,3.88,3,3.95,3.96,3.77,3.89,3.88,3.69,2631,10.9625,62283.6625,12.309455,948.800537,-195.629486,1.87860308015804,2.47145427623767,2.14383537774184,17.705961,818.385559,155.068207,102.608849,1182.391479,-34.031345,"LATERAL"
113,17,18,3.696,5746.9,-0.410997,0.408028,-0.536004,0.614243,-0.92822,0.31466,-0.09506,5743.66,-0.048767,-0.757155,0.00602,-0.651385,-0.9688,0.06034,0.13953,2.35,2.45,2.44,2.94,2.92,2.97,2.85,3.89,3,3.95,3.96,3.77,3.9,3.88,3.69,2640,11,62283.7,12.491339,948.996826,-195.670166,1.87817776861228,2.47101675043944,2.14457205279954,17.623102,818.33783,155.036224,102.669716,1182.506226,-33.887943,"LATERAL"
114,17,18,3.701,5746.92,-0.411007,0.408057,-0.535923,0.614287,-0.92735,0.31414,-0.09658,5743.68,-0.048423,-0.75719,0.006237,-0.651368,-0.97091,0.05687,0.13824,2.35,2.45,2.44,2.94,2.92,2.97,2.86,3.89,3,3.95,3.96,3.78,3.9,3.89,3.69,2641,11.004167,62283.704167,12.51688,949.004883,-195.665771,1.87807319678524,2.4710167073879,2.14463823740404,17.612307,818.334534,155.03479,102.66494,1182.512695,-33.868076,"LATERAL"
115,17,18,3.735,5746.94,-0.411001,0.408117,-0.535909,0.614264,-0.92698,0.31594,-0.09487,5743.7,-0.047772,-0.757158,0.006247,-0.651453,-0.97077,0.05702,0.1375,2.34,2.45,2.44,2.94,2.92,2.97,2.85,3.89,3,3.95,3.96,3.78,3.9,3.88,3.69,2649,11.0375,62283.7375,12.721354,949.029236,-195.585464,1.87741065477592,2.47128126539262,2.14477428978256,17.507763,818.276123,155.046127,102.675682,1182.571777,-33.763599,"LATERAL"
116,17,18,3.741,5746.96,-0.411051,0.408193,-0.535969,0.614128,-0.92765,0.31595,-0.09574,5743.72,-0.047325,-0.75714,0.00633,-0.651506,-0.96629,0.05824,0.14132,2.34,2.45,2.44,2.94,2.92,2.97,2.86,3.88,3,3.95,3.96,3.78,3.89,3.88,3.69,2650,11.041667,62283.741667,12.74788,949.02301,-195.568802,1.8773293857564,2.47134465185858,2.1447578979486,17.497854,818.268188,155.046143,102.677795,1182.573853,-33.753418,"LATERAL"
117,17,18,3.775,5746.98,-0.411077,0.408192,-0.536061,0.614031,-0.92597,0.31899,-0.0949,5743.74,-0.046905,-0.757161,0.006388,-0.651511,-0.96497,0.06381,0.14666,2.34,2.44,2.44,2.94,2.92,2.97,2.86,3.88,3,3.95,3.96,3.78,3.89,3.89,3.69,2658,11.075,62283.775,12.926739,948.927673,-195.414139,1.87657319007996,2.47194549143413,2.14459310786641,17.402693,818.203186,155.073914,102.636574,1182.576172,-33.649368,"LATERAL"
118,17,18,3.78,5747,-0.411022,0.408177,-0.536221,0.613938,-0.92322,0.32171,-0.09678,5743.76,-0.046708,-0.757372,0.006217,-0.651282,-0.96491,0.07005,0.15384,2.34,2.44,2.44,2.94,2.92,2.97,2.86,3.89,3,3.95,3.96,3.78,3.9,3.89,3.69,2660,11.083333,62283.783333,12.942321,948.903381,-195.371033,1.87648298753276,2.47204619720646,2.14454239849216,17.378595,818.192749,155.084106,102.625885,1182.568848,-33.620102,"LATERAL"
119,17,18,3.815,5747.02,-0.411019,0.408213,-0.536353,0.613801,-0.92552,0.32132,-0.09446,5743.78,-0.046659,-0.757407,0.006303,-0.651244,-0.97266,0.07458,0.15234,2.34,2.45,2.44,2.94,2.93,2.97,2.86,3.89,3,3.95,3.96,3.78,3.89,3.88,3.69,2668,11.116667,62283.816667,12.973655,948.865906,-195.205643,1.87622058832266,2.47225120221832,2.14448869952983,17.326557,818.135925,155.124054,102.586784,1182.580078,-33.460682,"LATERAL"
120,17,18,3.836,5747.04,-0.410994,0.408261,-0.536464,0.613688,-0.92622,0.32221,-0.09351,5743.8,-0.046678,-0.75747,0.006285,-0.651169,-0.98002,0.07403,0.14542,2.34,2.44,2.44,2.94,2.93,2.97,2.86,3.89,3,3.95,3.96,3.78,3.9,3.88,3.7,2673,11.1375,62283.8375,12.99593,948.857788,-195.115479,1.87601866790314,2.47226270089049,2.14460341468271,17.294304,818.107971,155.166306,102.561119,1182.598755,-33.32473,"LATERAL"
121,17,18,3.841,5747.06,-0.410945,0.408319,-0.536595,0.613568,-0.92669,0.32167,-0.09302,5743.82,-0.046981,-0.75745,0.006504,-0.651168,-0.97281,0.07314,0.14554,2.34,2.44,2.44,2.94,2.93,2.97,2.86,3.88,3,3.95,3.96,3.78,3.9,3.89,3.69,2674,11.141667,62283.841667,12.997123,948.855652,-195.09845,1.87600082273505,2.47225317201812,2.14462480375387,17.290493,818.102783,155.171478,102.561539,1182.606079,-33.294579,"LATERAL"
122,17,18,3.876,5747.08,-0.410887,0.408389,-0.536705,0.613464,-0.92784,0.32098,-0.09136,5743.84,-0.047887,-0.757525,0.006804,-0.651011,-0.96518,0.08196,0.14753,2.34,2.45,2.44,2.94,2.93,2.97,2.86,3.89,3,3.95,3.97,3.78,3.89,3.89,3.69,2683,11.179167,62283.879167,12.921618,948.935974,-195.031143,1.87603924341096,2.47143399892902,2.14547480822457,17.250727,818.057495,155.254364,102.540428,1182.648193,-32.935928,"LATERAL"
123,17,18,3.881,5747.1,-0.410757,0.408558,-0.536867,0.613297,-0.92665,0.32141,-0.08861,5743.86,-0.04985,-0.757873,0.007252,-0.650454,-0.95625,0.09515,0.15226,2.34,2.45,2.44,2.94,2.93,2.97,2.86,3.89,3,3.95,3.97,3.78,3.89,3.88,3.69,2684,11.183333,62283.883333,12.896541,948.955383,-195.032455,1.87611924301202,2.47122345636485,2.1456491714452,17.252432,818.049683,155.271683,102.546417,1182.650269,-32.878563,"LATERAL"
124,17,18,3.934,5747.12,-0.410618,0.408709,-0.536854,0.6133,-0.92768,0.3215,-0.08915,5743.88,-0.05269,-0.758303,0.008176,-0.649718,-0.9612,0.10908,0.15817,2.34,2.45,2.44,2.94,2.93,2.97,2.86,3.89,3,3.95,3.96,3.78,3.9,3.88,3.69,2697,11.2375,62283.9375,12.348199,949.663635,-195.395203,1.87809619078042,2.46648107617362,2.14946206114364,17.207438,818.003662,155.48703,102.659973,1182.734619,-32.107777,"LATERAL"
125,17,18,3.939,5747.14,-0.410539,0.408802,-0.536857,0.613289,-0.92712,0.32329,-0.08991,5743.9,-0.056039,-0.75856,0.009819,-0.649115,-0.98193,0.12446,0.16345,2.34,2.44,2.44,2.94,2.93,2.97,2.86,3.89,3,3.95,3.96,3.78,3.9,3.88,3.69,2698,11.241667,62283.941667,12.298206,949.776611,-195.458069,1.87828702291481,2.46590884419315,2.1499515850649,17.205971,818.000916,155.505585,102.666252,1182.74585,-32.044746,"LATERAL"
126,17,18,3.955,5747.16,-0.410442,0.408949,-0.53682,0.613289,-0.92793,0.32064,-0.09159,5743.92,-0.059517,-0.758504,0.012048,-0.648833,-0.99224,0.12735,0.15163,2.34,2.44,2.44,2.94,2.93,2.97,2.85,3.89,3.01,3.95,3.96,3.78,3.9,3.89,3.69,2702,11.258333,62283.958333,12.105334,950.205383,-195.707642,1.87898574694088,2.4636465053272,2.1519208817893,17.194544,817.980103,155.585052,102.695305,1182.810913,-31.760715,"LATERAL"
127,17,18,3.975,5747.18,-0.410332,0.409086,-0.536722,0.613355,-0.9284,0.3203,-0.08977,5743.94,-0.063433,-0.758289,0.014711,-0.648659,-0.98101,0.11942,0.13951,2.35,2.44,2.44,2.94,2.93,2.97,2.86,3.89,3.01,3.95,3.97,3.78,3.89,3.89,3.69,2706,11.275,62283.975,11.918519,950.647278,-195.982483,1.87957503229009,2.46124029385304,2.15411032409952,17.198782,817.958862,155.662704,102.718582,1182.909912,-31.412546,"LATERAL"
128,17,18,3.981,5747.2,-0.410115,0.409262,-0.536609,0.613483,-0.92749,0.32389,-0.09321,5743.96,-0.067807,-0.75791,0.01751,-0.648589,-1.01671,0.13825,0.14486,2.35,2.44,2.44,2.94,2.94,2.97,2.85,3.89,3.01,3.95,3.97,3.78,3.9,3.88,3.69,2708,11.283333,62283.983333,11.811478,950.880798,-196.101563,1.87998692646921,2.46005026506365,2.15511650774744,17.198891,817.95575,155.694061,102.748329,1182.969482,-31.24535,"LATERAL"
129,17,18,4.015,5747.22,-0.409907,0.409528,-0.536388,0.613637,-0.9277,0.32352,-0.09521,5743.98,-0.072673,-0.757448,0.020564,-0.648512,-0.98982,0.1533,0.15095,2.35,2.44,2.44,2.94,2.94,2.97,2.85,3.89,3.01,3.95,3.97,3.78,3.9,3.89,3.69,2716,11.316667,62284.016667,11.54215,952.823486,-196.789749,1.88195181653837,2.45295560346506,2.16141361720864,17.220411,817.939148,155.759842,102.904434,1183.233276,-30.610435,"LATERAL"
130,17,18,4.034,5747.24,-0.409717,0.409823,-0.536189,0.613741,-0.9262,0.32131,-0.08738,5744,-0.078081,-0.756853,0.023868,-0.648465,-0.98385,0.16926,0.15407,2.35,2.44,2.44,2.94,2.94,2.97,2.85,3.89,3.01,3.95,3.97,3.78,3.9,3.88,3.69,2721,11.3375,62284.0375,11.130907,953.896057,-197.212921,1.88369244515977,2.4484595968864,2.16508221379324,17.238569,817.933411,155.769012,102.989159,1183.454956,-30.122473,"LATERAL"
131,17,18,4.039,5747.26,-0.409586,0.410071,-0.536091,0.613748,-0.92486,0.32214,-0.08637,5744.02,-0.083898,-0.755982,0.027246,-0.648621,-0.98213,0.18706,0.15255,2.35,2.44,2.44,2.94,2.94,2.97,2.85,3.89,3.01,3.95,3.97,3.78,3.9,3.89,3.7,2722,11.341667,62284.041667,11.040259,954.117126,-197.302216,1.88403466905012,2.44755083165135,2.16582882227924,17.239845,817.937866,155.775497,102.996666,1183.505127,-30.025406,"LATERAL"
132,17,18,4.092,5747.28,-0.409563,0.410293,-0.535959,0.613731,-0.92838,0.31963,-0.08622,5744.04,-0.090265,-0.754994,0.030698,-0.648764,-0.97391,0.1957,0.15782,2.35,2.44,2.44,2.94,2.94,2.97,2.85,3.89,3.01,3.95,3.96,3.78,3.89,3.89,3.69,2735,11.395833,62284.095833,9.760828,957.522217,-198.822586,1.88885490151901,2.43402653971792,2.17707386751052,17.338257,817.922913,155.820114,103.073944,1184.281738,-28.796867,"LATERAL"
133,17,18,4.097,5747.3,-0.409586,0.410623,-0.535921,0.613528,-0.93298,0.31505,-0.08433,5744.06,-0.096682,-0.754052,0.034425,-0.648747,-0.98033,0.20546,0.14751,2.35,2.45,2.44,2.94,2.94,2.97,2.85,3.89,3.01,3.95,3.97,3.78,3.9,3.89,3.69,2736,11.4,62284.1,9.650074,957.82428,-198.968307,1.88927304170038,2.43281001299902,2.17809161452964,17.354631,817.920898,155.826233,103.081024,1184.346069,-28.694334,"LATERAL"
134,17,18,4.114,5747.32,-0.409676,0.410739,-0.535889,0.613419,-0.93302,0.31191,-0.08599,5744.08,-0.102863,-0.753112,0.038392,-0.648666,-0.99282,0.20654,0.12115,2.35,2.45,2.44,2.94,2.94,2.97,2.85,3.89,3.01,3.95,3.96,3.78,3.9,3.88,3.69,2740,11.416667,62284.116667,9.387053,959.040527,-199.564026,1.89037918227467,2.42814134834366,2.18230853313563,17.379459,817.926575,155.841217,103.120293,1184.626343,-28.278591,"LATERAL"
135,17,18,4.134,5747.34,-0.409828,0.410832,-0.535903,0.613243,-0.93134,0.31538,-0.0833,5744.1,-0.108895,-0.752019,0.042594,-0.648687,-0.98526,0.19809,0.1115,2.35,2.45,2.44,2.94,2.94,2.97,2.85,3.89,3.01,3.95,3.97,3.78,3.9,3.88,3.7,2745,11.4375,62284.1375,9.133269,960.524536,-200.264572,1.89151677416208,2.42253165913775,2.18748589979356,17.405191,817.924805,155.874908,103.181244,1184.993774,-27.730303,"LATERAL"
136,17,18,4.157,5747.36,-0.409999,0.410938,-0.535991,0.61298,-0.92944,0.31756,-0.08655,5744.12,-0.115105,-0.750814,0.047037,-0.648704,-0.9608,0.19857,0.11509,2.34,2.45,2.44,2.94,2.94,2.97,2.85,3.89,3.01,3.95,3.97,3.78,3.9,3.88,3.7,2750,11.458333,62284.158333,8.930611,962.216797,-201.133636,1.89255318886537,2.41597301095572,2.19370968243318,17.434364,817.928894,155.898682,103.240547,1185.318115,-27.145958,"LATERAL"
137,17,18,4.162,5747.38,-0.410231,0.411029,-0.53607,0.612694,-0.92807,0.31775,-0.0877,5744.14,-0.121108,-0.749468,0.051802,-0.648805,-0.95081,0.22004,0.12701,2.35,2.45,2.44,2.94,2.94,2.97,2.86,3.89,3.02,3.95,3.96,3.78,3.9,3.88,3.69,2751,11.4625,62284.1625,8.88979,962.511841,-201.264999,1.89280408096896,2.41486500324597,2.19471145041906,17.438087,817.93689,155.913452,103.262718,1185.374878,-27.049511,"LATERAL"
138,17,18,4.196,5747.4,-0.41044,0.411162,-0.536186,0.612364,-0.92789,0.3186,-0.08854,5744.16,-0.127041,-0.748078,0.056673,-0.648867,-0.95136,0.24193,0.12537,2.35,2.45,2.44,2.94,2.94,2.97,2.86,3.89,3.01,3.95,3.97,3.78,3.89,3.88,3.69,2760,11.5,62284.2,6.633998,962.885132,-201.881866,1.89865448944182,2.40899050785115,2.19713285122259,17.49052,817.90802,156.0103,103.231255,1185.898682,-26.04142,"LATERAL"
139,17,18,4.215,5747.42,-0.410626,0.411294,-0.536262,0.612084,-0.92899,0.31533,-0.0882,5744.18,-0.133218,-0.746465,0.061484,-0.649047,-0.95046,0.26679,0.12024,2.34,2.45,2.44,2.94,2.94,2.97,2.86,3.89,3.02,3.95,3.96,3.78,3.9,3.88,3.7,2764,11.516667,62284.216667,6.57218,964.211731,-202.497879,1.89896120477266,2.4041616538625,2.20198633832468,17.503483,817.886353,156.092651,103.184364,1186.088135,-25.612085,"LATERAL"
140,17,18,4.22,5747.44,-0.410781,0.411423,-0.536308,0.611853,-0.92991,0.31505,-0.08725,5744.2,-0.139998,-0.744617,0.066142,-0.649285,-0.94967,0.29253,0.1219,2.34,2.45,2.44,2.94,2.94,2.97,2.86,3.89,3.01,3.95,3.97,3.78,3.9,3.88,3.69,2765,11.520833,62284.220833,6.490787,964.490601,-202.594223,1.89921937929024,2.40312960322624,2.20289895964704,17.504097,817.884888,156.113998,103.170555,1186.145874,-25.498039,"LATERAL"
141,17,18,4.254,5747.46,-0.410915,0.411598,-0.536347,0.611611,-0.93014,0.31405,-0.08848,5744.22,-0.147222,-0.74252,0.070838,-0.649593,-0.965,0.32441,0.11848,2.34,2.45,2.44,2.94,2.94,2.97,2.86,3.89,3.01,3.95,3.96,3.78,3.9,3.89,3.69,2773,11.554167,62284.254167,5.22829,966.696411,-203.455276,1.9027374103334,2.39370285095383,2.21047004259032,17.52388,817.793518,156.333633,102.942566,1186.523071,-24.46557,"LATERAL"
142,17,18,4.274,5747.48,-0.411013,0.411754,-0.5364,0.611393,-0.92859,0.31669,-0.09063,5744.24,-0.154579,-0.740234,0.0757,-0.649945,-0.97234,0.35803,0.11665,2.34,2.45,2.44,2.94,2.94,2.97,2.85,3.89,3.01,3.95,3.97,3.78,3.9,3.88,3.69,2778,11.575,62284.275,4.618618,968.558533,-204.255173,1.90446293103511,2.38637226272146,2.21698076971967,17.524296,817.720642,156.494293,102.803391,1186.843262,-23.737043,"LATERAL"
143,17,18,4.28,5747.5,-0.411052,0.411923,-0.53647,0.611192,-0.92887,0.317,-0.08759,5744.26,-0.161884,-0.737942,0.081097,-0.650122,-0.94774,0.38635,0.10713,2.34,2.45,2.44,2.94,2.94,2.97,2.86,3.89,3.01,3.95,3.97,3.78,3.9,3.88,3.7,2780,11.583333,62284.283333,4.325572,969.370605,-204.593018,1.90550409756745,2.38314921348891,2.219654342469,17.517948,817.695923,156.564194,102.786011,1186.949463,-23.470932,"LATERAL"
144,17,18,4.317,5747.52,-0.411081,0.412226,-0.536489,0.610952,-0.92484,0.31681,-0.09143,5744.28,-0.169689,-0.735614,0.086878,-0.650023,-0.93827,0.39139,0.10062,2.34,2.45,2.44,2.94,2.94,2.97,2.86,3.89,3.01,3.95,3.97,3.78,3.9,3.88,3.7,2789,11.620833,62284.320833,3.245152,973.46228,-206.519119,1.90917212309495,2.36694142914052,2.23404249849116,17.450481,817.577576,156.902679,102.649727,1187.469849,-22.153353,"LATERAL"
145,17,18,4.322,5747.54,-0.411106,0.412571,-0.536552,0.610646,-0.92456,0.31663,-0.08664,5744.3,-0.17777,-0.733239,0.093279,-0.649659,-0.93774,0.40475,0.09696,2.34,2.45,2.44,2.94,2.94,2.98,2.86,3.89,3.01,3.95,3.97,3.78,3.9,3.88,3.69,2790,11.625,62284.325,3.129411,973.945679,-206.720947,1.90964351486865,2.36508694714017,2.23564829460099,17.438543,817.560364,156.933655,102.64785,1187.523071,-22.012287,"LATERAL"
146,17,18,4.355,5747.56,-0.411073,0.412946,-0.536608,0.610367,-0.92685,0.31648,-0.08793,5744.32,-0.186045,-0.73086,0.099958,-0.64903,-0.93461,0.41652,0.09354,2.34,2.45,2.44,2.94,2.94,2.98,2.86,3.89,3.01,3.95,3.97,3.78,3.9,3.88,3.69,2798,11.658333,62284.358333,2.116218,978.2854,-208.752594,1.91382473740268,2.3482614473078,2.25021032262184,17.359793,817.448853,157.148804,102.681259,1188.02478,-20.88125,"LATERAL"
147,17,18,4.375,5747.58,-0.411002,0.413401,-0.536681,0.610041,-0.92805,0.31628,-0.08732,5744.34,-0.1944,-0.728604,0.106941,-0.648003,-0.92231,0.44332,0.09284,2.34,2.45,2.44,2.94,2.94,2.97,2.85,3.89,3.01,3.95,3.97,3.78,3.9,3.88,3.7,2802,11.675,62284.375,1.561397,980.666077,-209.736923,1.91636665561439,2.33923549572477,2.25777564346223,17.301222,817.400879,157.23439,102.745216,1188.275269,-20.292206,"LATERAL"
148,17,18,4.381,5747.6,-0.410953,0.413853,-0.536771,0.609688,-0.92875,0.31138,-0.08662,5744.36,-0.202925,-0.726464,0.113895,-0.646606,-0.93973,0.46034,0.07978,2.34,2.45,2.44,2.94,2.94,2.97,2.86,3.89,3.01,3.95,3.96,3.79,3.9,3.88,3.69,2804,11.683333,62284.383333,1.283342,981.881775,-210.271072,1.91765655119058,2.33464627863916,2.26160914866013,17.279242,817.379395,157.268921,102.785286,1188.412964,-20.025455,"LATERAL"
149,17,18,4.417,5747.62,-0.410896,0.414304,-0.53686,0.609343,-0.93052,0.30995,-0.08322,5744.38,-0.211304,-0.723421,0.120948,-0.646053,-0.95288,0.49756,0.06848,2.34,2.45,2.44,2.95,2.94,2.97,2.85,3.89,3.02,3.95,3.97,3.78,3.89,3.88,3.7,2813,11.720833,62284.420833,1.284998,981.870178,-210.249496,1.91673738819839,2.33360866840184,2.26326178474818,17.161711,817.304504,157.378143,103.020187,1189.178833,-18.69862,"LATERAL"
150,17,18,4.422,5747.64,-0.410899,0.414692,-0.537,0.608953,-0.93342,0.30598,-0.08273,5744.4,-0.220674,-0.720904,0.126884,-0.644593,-0.85017,0.46938,0.0595,2.34,2.45,2.44,2.95,2.94,2.97,2.85,3.89,3.02,3.95,3.97,3.78,3.9,3.88,3.69,2814,11.725,62284.425,1.284998,981.870178,-210.249496,1.91669097305008,2.33352039560956,2.26338163941597,17.150801,817.297729,157.391052,103.067459,1189.282715,-18.55724,"LATERAL"
151,17,18,4.47,5747.66,-0.410964,0.415073,-0.537095,0.608566,-0.93415,0.30347,-0.07874,5744.42,-0.231037,-0.718217,0.131623,-0.64301,-0.94038,0.488,0.05786,2.34,2.45,2.44,2.95,2.94,2.97,2.86,3.89,3.02,3.95,3.97,3.78,3.89,3.88,3.69,2825,11.770833,62284.470833,1.284998,981.870178,-210.249496,1.91572638644036,2.33228855983274,2.26525834147046,17.086851,817.229675,157.411972,103.455482,1190.363037,-16.873877,"LATERAL"
152,17,18,4.475,5747.68,-0.411064,0.415318,-0.537268,0.608178,-0.93532,0.30465,-0.07738,5744.44,-0.240954,-0.714884,0.136058,-0.642161,-0.88016,0.50316,0.05512,2.34,2.45,2.44,2.95,2.94,2.97,2.86,3.89,3.02,3.95,3.97,3.79,3.9,3.88,3.69,2826,11.775,62284.475,1.284998,981.870178,-210.249496,1.9156618587531,2.33217094270718,2.26541954163696,17.085674,817.222778,157.412384,103.500343,1190.466309,-16.71677,"LATERAL"
153,17,18,4.495,5747.7,-0.411227,0.415546,-0.537503,0.607704,-0.93731,0.30406,-0.07427,5744.46,-0.250955,-0.711449,0.140826,-0.641116,-0.85043,0.51233,0.03782,2.33,2.45,2.44,2.95,2.94,2.97,2.85,3.89,3.02,3.95,3.97,3.78,3.9,3.88,3.69,2831,11.795833,62284.495833,1.284998,981.870178,-210.249496,1.91520693673102,2.33155342459271,2.26634063482873,17.084578,817.200745,157.424408,103.666405,1190.93457,-15.942028,"LATERAL"
154,17,18,4.518,5747.72,-0.411434,0.415667,-0.537714,0.607294,-0.93769,0.30347,-0.07467,5744.48,-0.260648,-0.70747,0.146256,-0.640435,-0.85557,0.53277,0.03397,2.33,2.45,2.44,2.95,2.94,2.97,2.85,3.89,3.02,3.95,3.97,3.79,3.9,3.89,3.69,2837,11.820833,62284.520833,1.284998,981.870178,-210.249496,1.91459253196643,2.33081691006273,2.26748465971192,17.120848,817.157532,157.493713,103.836678,1191.479248,-15.017805,"LATERAL"
155,17,18,4.523,5747.74,-0.411638,0.415811,-0.537936,0.606861,-0.9349,0.30484,-0.07,5744.5,-0.26999,-0.703447,0.15226,-0.639598,-0.83979,0.55697,0.03322,2.33,2.45,2.44,2.95,2.94,2.97,2.86,3.89,3.02,3.95,3.97,3.79,3.89,3.88,3.69,2838,11.825,62284.525,1.284998,981.870178,-210.249496,1.91446699918378,2.33067187294735,2.26771274092321,17.124481,817.150879,157.509369,103.861328,1191.571167,-14.849131,"LATERAL"
156,17,18,4.555,5747.76,-0.411866,0.415969,-0.538184,0.606378,-0.93558,0.30413,-0.06974,5744.52,-0.279124,-0.699457,0.158569,-0.638518,-0.82589,0.57748,0.03277,2.33,2.45,2.44,2.95,2.94,2.97,2.86,3.89,3.02,3.95,3.97,3.79,3.89,3.88,3.69,2846,11.858333,62284.558333,1.284998,981.870178,-210.249496,1.9134919533912,2.32967529327406,2.26935100286672,17.162811,817.10437,157.657288,104.039948,1192.289307,-13.590122,"LATERAL"
157,17,18,4.56,5747.78,-0.412134,0.416059,-0.538391,0.60595,-0.93698,0.30596,-0.07042,5744.54,-0.288177,-0.695409,0.164883,-0.637318,-0.81454,0.5933,0.03078,2.33,2.45,2.44,2.95,2.94,2.97,2.86,3.89,3.02,3.95,3.97,3.79,3.9,3.88,3.69,2847,11.8625,62284.5625,1.284998,981.870178,-210.249496,1.91345714925968,2.32956744356707,2.26948270814006,17.163916,817.100159,157.6651,104.084412,1192.376953,-13.454973,"LATERAL"
158,17,18,4.596,5747.8,-0.412342,0.416212,-0.53857,0.605544,-0.93134,0.31027,-0.0711,5744.56,-0.297053,-0.691299,0.17117,-0.636055,-0.80212,0.60563,0.02984,2.33,2.45,2.44,2.95,2.94,2.97,2.85,3.89,3.02,3.95,3.97,3.79,3.89,3.89,3.69,2856,11.9,62284.6,1.284998,981.870178,-210.249496,1.91272090338477,2.3285136587196,2.27102320631602,17.207045,817.094421,157.81517,104.359123,1193.140869,-12.158577,"LATERAL"
159,17,18,4.601,5747.82,-0.41248,0.41647,-0.538665,0.605189,-0.9303,0.31281,-0.07202,5744.58,-0.305789,-0.687198,0.177386,-0.634654,-0.78605,0.61754,0.02541,2.33,2.45,2.44,2.95,2.94,2.97,2.86,3.89,3.02,3.95,3.97,3.79,3.89,3.88,3.69,2857,11.904167,62284.604167,1.284998,981.870178,-210.249496,1.91264294389466,2.32839083961965,2.27119760400263,17.207272,817.099792,157.832123,104.395302,1193.233887,-12.004614,"LATERAL"
160,17,18,4.635,5747.84,-0.41254,0.41676,-0.538642,0.604969,-0.92981,0.31022,-0.07469,5744.6,-0.314003,-0.683293,0.18367,-0.633071,-0.76892,0.61447,0.01894,2.33,2.46,2.44,2.95,2.94,2.97,2.86,3.89,3.02,3.95,3.97,3.79,3.9,3.89,3.69,2865,11.9375,62284.6375,1.284998,981.870178,-210.249496,1.91170997695853,2.32759476511342,2.27260095244066,17.226341,817.110046,157.919495,104.544975,1193.918579,-10.863646,"LATERAL"
161,17,18,4.64,5747.86,-0.412479,0.417093,-0.538613,0.604806,-0.93328,0.30675,-0.07384,5744.62,-0.321537,-0.6796,0.190163,-0.631344,-0.74949,0.62613,0.01641,2.33,2.46,2.44,2.95,2.94,2.97,2.86,3.89,3.02,3.96,3.97,3.79,3.9,3.88,3.69,2866,11.941667,62284.641667,1.284998,981.870178,-210.249496,1.9115740707899,2.32747776715554,2.27280624923468,17.225483,817.111023,157.932953,104.556419,1193.99707,-10.716687,"LATERAL"
162,17,18,4.676,5747.88,-0.412459,0.417404,-0.538541,0.60467,-0.93914,0.30364,-0.07377,5744.64,-0.328664,-0.676038,0.196677,-0.629501,-0.73889,0.63839,0.0034,2.33,2.46,2.44,2.95,2.94,2.97,2.85,3.89,3.02,3.95,3.97,3.79,3.9,3.88,3.69,2875,11.979167,62284.679167,1.284998,981.870178,-210.249496,1.91030350180504,2.32685096193624,2.27425090449405,17.23068,817.093445,158.034088,104.639793,1194.790405,-9.495234,"LATERAL"
163,17,18,4.681,5747.9,-0.41249,0.417705,-0.538511,0.604467,-0.93713,0.30319,-0.06988,5744.66,-0.33568,-0.672588,0.203191,-0.627421,-0.69765,0.65063,-0.00539,2.33,2.46,2.44,2.95,2.94,2.98,2.86,3.89,3.02,3.95,3.97,3.79,3.9,3.88,3.69,2876,11.983333,62284.683333,1.284998,981.870178,-210.249496,1.91019148439113,2.32674815205363,2.27442622101403,17.2325,817.086365,158.047073,104.651573,1194.859009,-9.367143,"LATERAL"
164,17,18,4.717,5747.92,-0.41254,0.417939,-0.538475,0.604304,-0.93631,0.29973,-0.07099,5744.68,-0.341976,-0.669019,0.209489,-0.625763,-0.75759,0.677,-0.00705,2.33,2.46,2.44,2.95,2.94,2.97,2.86,3.89,3.01,3.95,3.97,3.79,3.9,3.88,3.69,2885,12.020833,62284.720833,1.284998,981.870178,-210.249496,1.90920580643998,2.326061158762,2.27574744401028,17.228449,817.037109,158.142151,104.75602,1195.515381,-8.287281,"LATERAL"
165,17,18,4.722,5747.94,-0.41263,0.418118,-0.538449,0.604141,-0.93563,0.29918,-0.07108,5744.7,-0.348455,-0.665958,0.215257,-0.623492,-0.6524,0.67709,-0.00909,2.33,2.46,2.44,2.95,2.94,2.98,2.85,3.89,3.02,3.95,3.97,3.79,3.89,3.88,3.69,2886,12.025,62284.725,1.284998,981.870178,-210.249496,1.9091058355742,2.3260139357639,2.27585862066731,17.221815,817.035645,158.157593,104.773842,1195.602173,-8.168698,"LATERAL"
166,17,18,4.755,5747.96,-0.412668,0.418376,-0.538448,0.603938,-0.93309,0.30092,-0.07021,5744.72,-0.35464,-0.662758,0.220941,-0.621424,-0.67419,0.70142,-0.01693,2.33,2.46,2.44,2.95,2.94,2.97,2.86,3.89,3.01,3.95,3.97,3.79,3.89,3.88,3.69,2894,12.058333,62284.758333,1.284998,981.870178,-210.249496,1.90802269642193,2.32561594965539,2.276947005735,17.200905,816.996765,158.251175,104.766991,1196.157471,-7.298846,"LATERAL"
167,17,18,4.762,5747.98,-0.412707,0.418577,-0.538431,0.603787,-0.93227,0.30123,-0.07157,5744.74,-0.360567,-0.659615,0.226519,-0.619345,-0.66082,0.71938,-0.02272,2.34,2.46,2.44,2.95,2.95,2.98,2.86,3.89,3.02,3.95,3.97,3.79,3.9,3.88,3.69,2895,12.0625,62284.7625,1.284998,981.870178,-210.249496,1.90784520384179,2.32554451044976,2.27713143148909,17.189482,816.99884,158.262024,104.749565,1196.213623,-7.186347,"LATERAL"
168,17,18,4.798,5748,-0.412773,0.418829,-0.538407,0.603589,-0.93386,0.29843,-0.07071,5744.76,-0.366533,-0.6565,0.231919,-0.617151,-0.63443,0.71802,-0.02431,2.34,2.46,2.44,2.95,2.94,2.97,2.86,3.89,3.02,3.95,3.97,3.79,3.89,3.88,3.69,2904,12.1,62284.8,1.284998,981.870178,-210.249496,1.90643399341339,2.32522900179462,2.27834050682651,17.11437,816.905151,158.354263,104.627914,1196.755371,-6.316338,"LATERAL"
169,17,18,4.805,5748.02,-0.412803,0.418955,-0.538397,0.603489,-0.93696,0.29775,-0.06925,5744.78,-0.372262,-0.653793,0.237292,-0.614547,-0.60803,0.73218,-0.01552,2.33,2.46,2.44,2.95,2.94,2.98,2.86,3.89,3.02,3.95,3.97,3.79,3.89,3.88,3.69,2906,12.108333,62284.808333,1.284998,981.870178,-210.249496,1.90616399497757,2.325290460492,2.27844834647944,17.094309,816.881653,158.364197,104.608803,1196.896118,-6.170379,"LATERAL"
170,17,18,4.835,5748.04,-0.412788,0.419113,-0.538379,0.603406,-0.93771,0.30015,-0.07106,5744.8,-0.378187,-0.651736,0.242385,-0.611118,-0.61047,0.74911,-0.00232,2.34,2.46,2.44,2.95,2.95,2.97,2.85,3.89,3.01,3.95,3.97,3.79,3.89,3.88,3.69,2913,12.1375,62284.8375,1.284998,981.870178,-210.249496,1.90576042626981,2.32534064700352,2.27865141463555,17.00749,816.817871,158.37999,104.718048,1197.384521,-5.669212,"LATERAL"
171,17,18,4.84,5748.06,-0.412775,0.419309,-0.538391,0.603268,-0.93616,0.30113,-0.07104,5744.82,-0.382938,-0.649865,0.247913,-0.607925,-0.64558,0.7715,-0.01467,2.34,2.46,2.44,2.95,2.95,2.98,2.86,3.89,3.01,3.95,3.97,3.79,3.9,3.88,3.69,2914,12.141667,62284.841667,1.284998,981.870178,-210.249496,1.90569922967797,2.32536044921148,2.27866986735208,16.99579,816.813171,158.390823,104.730721,1197.453369,-5.603755,"LATERAL"
172,17,18,4.875,5748.08,-0.412741,0.419512,-0.538436,0.60311,-0.93361,0.29801,-0.06981,5744.84,-0.387263,-0.64841,0.253429,-0.604454,-0.53477,0.7642,-0.02393,2.34,2.46,2.44,2.95,2.95,2.98,2.85,3.89,3.01,3.95,3.97,3.79,3.89,3.88,3.69,2922,12.175,62284.875,1.284998,981.870178,-210.249496,1.90505897439224,2.32548076623987,2.27895030073928,16.929026,816.809326,158.400513,104.759315,1197.93811,-5.10266,"LATERAL"
173,17,18,4.88,5748.1,-0.412735,0.419754,-0.538513,0.602877,-0.93234,0.2959,-0.07138,5744.86,-0.391449,-0.646673,0.25869,-0.601383,-0.64498,0.78448,-0.02234,2.34,2.46,2.44,2.95,2.95,2.97,2.85,3.89,3.01,3.95,3.97,3.79,3.89,3.88,3.69,2924,12.183333,62284.883333,1.284998,981.870178,-210.249496,1.90480310802732,2.32550782014645,2.27908342263393,16.922771,816.820923,158.409454,104.742607,1198.068726,-4.952643,"LATERAL"
174,17,18,4.916,5748.12,-0.412656,0.419937,-0.538635,0.602693,-0.93556,0.29487,-0.06728,5744.88,-0.395924,-0.644715,0.263759,-0.598346,-0.50882,0.7917,-0.02326,2.34,2.46,2.44,2.95,2.95,2.97,2.85,3.89,3.01,3.95,3.97,3.79,3.89,3.88,3.69,2932,12.216667,62284.916667,1.284998,981.870178,-210.249496,1.90392812549386,2.3257060337196,2.27943107462877,16.90947,816.810547,158.460434,104.670021,1198.508911,-4.494535,"LATERAL"
175,17,18,4.921,5748.14,-0.412618,0.420066,-0.538818,0.602467,-0.94074,0.29799,-0.06597,5744.9,-0.400603,-0.642524,0.26836,-0.595536,-0.60693,0.82153,-0.01699,2.34,2.46,2.44,2.95,2.94,2.98,2.85,3.89,3.01,3.95,3.97,3.79,3.89,3.89,3.68,2934,12.225,62284.925,1.284998,981.870178,-210.249496,1.90370505245936,2.32574564037037,2.27953054175439,16.917086,816.812866,158.475937,104.64402,1198.603271,-4.389696,"LATERAL"
176,17,18,4.971,5748.16,-0.412593,0.420236,-0.53907,0.602139,-0.94346,0.30024,-0.06252,5744.92,-0.40539,-0.639978,0.272967,-0.592939,-0.48378,0.82792,-0.02344,2.34,2.46,2.45,2.95,2.95,2.98,2.86,3.89,3.01,3.95,3.98,3.79,3.89,3.89,3.68,2946,12.275,62284.975,1.284998,981.870178,-210.249496,1.9022586704521,2.32585987635365,2.28031744106377,16.985222,816.798523,158.539383,104.444084,1199.119263,-3.735329,"LATERAL"
177,17,18,4.976,5748.18,-0.412585,0.420313,-0.539231,0.601947,-0.94175,0.302,-0.06172,5744.94,-0.410413,-0.637147,0.277395,-0.590472,-0.60983,0.85219,-0.03155,2.34,2.46,2.44,2.95,2.94,2.98,2.85,3.89,3.01,3.95,3.97,3.79,3.9,3.89,3.68,2947,12.279167,62284.979167,1.284998,981.870178,-210.249496,1.90213505199748,2.32589913056743,2.28035475338674,16.989124,816.802002,158.541824,104.425789,1199.167847,-3.688786,"LATERAL"
178,17,18,4.996,5748.2,-0.412472,0.420352,-0.539412,0.601835,-0.93365,0.30404,-0.06304,5744.96,-0.41579,-0.633973,0.281707,-0.58808,-0.44639,0.8388,-0.04145,2.34,2.46,2.44,2.95,2.94,2.98,2.85,3.89,3.01,3.95,3.98,3.8,3.9,3.88,3.68,2952,12.3,62285,1.284998,981.870178,-210.249496,1.90148443835578,2.3260759745054,2.28058076233444,17.017885,816.817322,158.553345,104.303535,1199.362427,-3.488261,"LATERAL"
179,17,18,5.001,5748.22,-0.412414,0.420476,-0.539447,0.601757,-0.93293,0.30191,-0.06424,5744.98,-0.420949,-0.630482,0.286007,-0.586084,-0.5956,0.8634,-0.04368,2.34,2.46,2.44,2.95,2.94,2.97,2.85,3.89,3.01,3.95,3.98,3.8,3.9,3.89,3.67,2953,12.304167,62285.004167,1.284998,981.870178,-210.249496,1.90138368095266,2.326118624441,2.28060028999262,17.031422,816.82135,158.550842,104.285858,1199.398804,-3.458346,"LATERAL"
180,17,18,5.035,5748.24,-0.412307,0.420601,-0.539455,0.601736,-0.93665,0.29958,-0.06041,5745,-0.42612,-0.627394,0.290472,-0.583459,-0.4138,0.84724,-0.04592,2.34,2.46,2.44,2.95,2.95,2.98,2.85,3.89,3.01,3.95,3.98,3.81,3.9,3.88,3.67,2961,12.3375,62285.0375,1.284998,981.870178,-210.249496,1.90066553710605,2.32629811716395,2.28086469055101,17.074131,816.849548,158.535873,104.194817,1199.703857,-3.144109,"LATERAL"
181,17,18,5.04,5748.26,-0.412146,0.420842,-0.539509,0.601629,-0.93546,0.29708,-0.06121,5745.02,-0.430867,-0.623896,0.295371,-0.581261,-0.56552,0.8803,-0.04993,2.34,2.46,2.44,2.95,2.94,2.98,2.85,3.89,3.01,3.95,3.98,3.81,3.91,3.89,3.67,2962,12.341667,62285.041667,1.284998,981.870178,-210.249496,1.90058735362929,2.32633585101388,2.28087505606897,17.077829,816.858215,158.53978,104.18576,1199.743164,-3.112538,"LATERAL"
182,17,18,5.092,5748.28,-0.412028,0.420962,-0.539478,0.601654,-0.93966,0.29762,-0.05955,5745.04,-0.435834,-0.620712,0.300211,-0.57848,-0.40827,0.86454,-0.06595,2.34,2.46,2.44,2.95,2.95,2.98,2.85,3.89,3.01,3.95,3.98,3.81,3.91,3.89,3.67,2975,12.395833,62285.095833,1.284998,981.870178,-210.249496,1.89965286185319,2.32660352760436,2.28118328228374,17.058998,816.917908,158.474762,104.118431,1200.258789,-2.606884,"LATERAL"
183,17,18,5.098,5748.3,-0.411914,0.421194,-0.539517,0.601535,-0.93876,0.29806,-0.06475,5745.06,-0.440011,-0.616882,0.305347,-0.576724,-0.5253,0.89335,-0.07087,2.34,2.46,2.44,2.95,2.95,2.97,2.85,3.89,3.01,3.95,3.98,3.82,3.91,3.89,3.67,2976,12.4,62285.1,1.284998,981.870178,-210.249496,1.8995963881072,2.32663261962948,2.28118882374188,17.053167,816.923401,158.463074,104.120422,1200.305908,-2.567156,"LATERAL"
184,17,18,5.116,5748.32,-0.411814,0.421284,-0.539486,0.601568,-0.93982,0.29815,-0.06304,5745.08,-0.445733,-0.613042,0.310169,-0.573844,-0.37048,0.8798,-0.06041,2.34,2.46,2.44,2.95,2.95,2.98,2.85,3.89,3.01,3.95,3.99,3.82,3.91,3.88,3.67,2980,12.416667,62285.116667,1.284998,981.870178,-210.249496,1.89940547117602,2.3267448767277,2.28119347755227,17.020779,816.954529,158.401413,104.137184,1200.489868,-2.415879,"LATERAL"
185,17,18,5.121,5748.34,-0.41171,0.421354,-0.539415,0.601654,-0.93795,0.2964,-0.06536,5745.1,-0.450714,-0.60883,0.314356,-0.572156,-0.51855,0.90552,-0.04881,2.34,2.46,2.44,2.95,2.95,2.98,2.85,3.89,3.01,3.95,3.99,3.83,3.91,3.89,3.67,2982,12.425,62285.125,1.284998,981.870178,-210.249496,1.89930241869723,2.32681329107529,2.28118806892293,17.009848,816.957275,158.36792,104.147377,1200.593506,-2.333749,"LATERAL"
186,17,18,5.167,5748.36,-0.411588,0.421436,-0.539324,0.601761,-0.93619,0.29743,-0.06553,5745.12,-0.45561,-0.604929,0.318591,-0.57007,-0.3355,0.89118,-0.06588,2.34,2.46,2.44,2.95,2.95,2.97,2.85,3.89,3.01,3.95,4,3.84,3.91,3.89,3.66,2993,12.470833,62285.170833,1.284998,981.870178,-210.249496,1.89901558573922,2.32738567957456,2.28078724274309,16.921518,817.018982,158.197754,104.313019,1201.263306,-1.920672,"LATERAL"
187,17,18,5.172,5748.38,-0.41144,0.4215,-0.539221,0.601911,-0.93733,0.29454,-0.06646,5745.14,-0.459956,-0.600924,0.323012,-0.568326,-0.50555,0.91942,-0.06909,2.34,2.46,2.44,2.95,2.95,2.97,2.85,3.89,3.01,3.95,4,3.84,3.91,3.89,3.66,2994,12.475,62285.175,1.284998,981.870178,-210.249496,1.89899935873836,2.32743981098581,2.28074259704013,16.922173,817.027283,158.182419,104.332352,1201.327515,-1.882474,"LATERAL"
188,17,18,5.196,5748.4,-0.411359,0.421616,-0.539123,0.601971,-0.93853,0.29379,-0.06583,5745.16,-0.464401,-0.597141,0.32713,-0.566339,-0.3156,0.90283,-0.07479,2.34,2.46,2.44,2.95,2.95,2.98,2.85,3.89,3.01,3.95,4.01,3.85,3.91,3.89,3.66,3000,12.5,62285.2,1.284998,981.870178,-210.249496,1.89883119246753,2.32781548335916,2.28046699927325,16.905521,817.076355,158.08963,104.415337,1201.700195,-1.678547,"LATERAL"
189,17,18,5.202,5748.42,-0.411248,0.421611,-0.539058,0.60211,-0.93881,0.29333,-0.06332,5745.18,-0.468865,-0.592619,0.331811,-0.564686,-0.43068,0.93828,-0.06935,2.34,2.46,2.44,2.95,2.95,2.98,2.85,3.89,3.01,3.95,4.01,3.86,3.91,3.89,3.66,3001,12.504167,62285.204167,1.284998,981.870178,-210.249496,1.89880660485982,2.32783601668303,2.28046143341078,16.905485,817.07959,158.076431,104.429581,1201.751221,-1.63602,"LATERAL"
190,17,18,5.235,5748.44,-0.411197,0.421555,-0.539048,0.602193,-0.93638,0.29604,-0.0651,5745.2,-0.473762,-0.588689,0.336012,-0.562219,-0.32096,0.92768,-0.07938,2.34,2.46,2.44,2.95,2.95,2.98,2.85,3.89,3.01,3.95,4.01,3.87,3.91,3.89,3.66,3009,12.5375,62285.2375,1.284998,981.870178,-210.249496,1.89825851688193,2.3284065935318,2.28022309655381,16.910187,817.162659,157.991074,104.442535,1202.266602,-1.331206,"LATERAL"
191,17,18,5.276,5748.46,-0.411042,0.421533,-0.539169,0.602206,-0.93415,0.29989,-0.06189,5745.22,-0.477725,-0.584542,0.341101,-0.560124,-0.3223,0.90625,-0.09187,2.34,2.46,2.44,2.95,2.95,2.98,2.85,3.89,3.01,3.95,4.02,3.88,3.91,3.89,3.66,3019,12.579167,62285.279167,1.284998,981.870178,-210.249496,1.89800883339979,2.32880070815432,2.27997879069071,16.942469,817.230042,157.897385,104.569527,1202.792236,-0.979721,"LATERAL"
192,17,18,5.281,5748.48,-0.411015,0.421459,-0.539211,0.602237,-0.93696,0.30042,-0.06048,5745.24,-0.481626,-0.580877,0.34613,-0.557506,-0.39795,0.90346,-0.08779,2.34,2.46,2.44,2.95,2.95,2.98,2.85,3.89,3.01,3.95,4.03,3.89,3.92,3.89,3.66,3020,12.583333,62285.283333,1.284998,981.870178,-210.249496,1.89802281365453,2.32883035823184,2.2799402277028,16.945471,817.238464,157.884842,104.592804,1202.839844,-0.950586,"LATERAL"
193,17,18,5.289,5748.5,-0.410784,0.421508,-0.539375,0.602215,-0.93837,0.30202,-0.06243,5745.26,-0.485288,-0.577132,0.350927,-0.555216,-0.24015,0.89008,-0.08282,2.34,2.46,2.44,2.95,2.95,2.98,2.85,3.89,3.01,3.95,4.04,3.9,3.92,3.88,3.66,3022,12.591667,62285.291667,1.284998,981.870178,-210.249496,1.89802562281599,2.32889903470998,2.27986911764056,16.956524,817.250183,157.865677,104.62674,1202.926636,-0.900917,"LATERAL"
194,17,18,5.329,5748.52,-0.410711,0.421487,-0.539393,0.602263,-0.93635,0.30504,-0.06335,5745.28,-0.488751,-0.573084,0.355493,-0.553464,-0.3738,0.92522,-0.07668,2.34,2.46,2.44,2.95,2.95,2.97,2.85,3.89,3.02,3.94,4.04,3.91,3.92,3.88,3.67,3031,12.629167,62285.329167,1.284998,981.870178,-210.249496,1.89785508967855,2.32906008467881,2.27981142026288,17.014864,817.332458,157.746964,104.703247,1203.239136,-0.654715,"LATERAL"
195,17,18,5.334,5748.54,-0.410645,0.421445,-0.539411,0.602321,-0.93694,0.30448,-0.06222,5745.3,-0.492846,-0.56921,0.359231,-0.551413,-0.23455,0.9153,-0.08167,2.34,2.46,2.44,2.95,2.95,2.98,2.85,3.89,3.02,3.95,4.04,3.92,3.93,3.88,3.67,3033,12.6375,62285.3375,1.284998,981.870178,-210.249496,1.89775033166325,2.32914274074561,2.27979239616501,17.032284,817.344238,157.722122,104.705215,1203.331055,-0.590631,"LATERAL"
196,17,18,5.356,5748.56,-0.410588,0.421436,-0.539445,0.602335,-0.93483,0.30134,-0.06363,5745.32,-0.496468,-0.564845,0.363068,-0.550137,-0.25799,0.92062,-0.09722,2.35,2.46,2.44,2.94,2.95,2.98,2.85,3.89,3.02,3.94,4.05,3.93,3.94,3.88,3.67,3038,12.658333,62285.358333,1.284998,981.870178,-210.249496,1.89754239297645,2.32932370472995,2.27973750850486,17.079176,817.388916,157.659378,104.719063,1203.53894,-0.447328,"LATERAL"
197,17,18,5.36,5748.58,-0.410527,0.421371,-0.539438,0.602429,-0.93555,0.30003,-0.06226,5745.34,-0.499919,-0.560659,0.366876,-0.548767,-0.31055,0.92065,-0.10714,2.35,2.46,2.44,2.94,2.95,2.98,2.85,3.89,3.03,3.94,4.05,3.94,3.94,3.88,3.67,3039,12.6625,62285.3625,1.284998,981.870178,-210.249496,1.89748997362718,2.32935252798082,2.27974063007469,17.089411,817.397705,157.655853,104.718826,1203.579468,-0.414588,"LATERAL"
198,17,18,5.409,5748.6,-0.410454,0.421415,-0.53942,0.602464,-0.93588,0.30071,-0.06355,5745.36,-0.503923,-0.556576,0.370542,-0.546793,-0.18883,0.90641,-0.10107,2.35,2.46,2.44,2.94,2.95,2.98,2.85,3.89,3.03,3.94,4.06,3.95,3.95,3.87,3.67,3051,12.7125,62285.4125,1.284998,981.870178,-210.249496,1.89725513503033,2.32957182603704,2.27966345377507,17.201904,817.488708,157.52565,104.881821,1204.134277,0.042921,"LATERAL"
199,17,18,5.414,5748.62,-0.410434,0.421338,-0.539427,0.602526,-0.93942,0.30064,-0.06025,5745.38,-0.506543,-0.552686,0.374136,-0.54587,-0.32586,0.94088,-0.1115,2.35,2.46,2.44,2.94,2.95,2.98,2.85,3.89,3.04,3.94,4.06,3.96,3.95,3.87,3.67,3052,12.716667,62285.416667,1.284998,981.870178,-210.249496,1.89724924441273,2.32958852783405,2.27965019920594,17.205093,817.497375,157.521408,104.899757,1204.180542,0.079738,"LATERAL"
200,17,18,5.436,5748.64,-0.410455,0.421272,-0.539422,0.602562,-0.93529,0.30181,-0.06138,5745.4,-0.509434,-0.549309,0.377116,-0.544537,-0.16051,0.92442,-0.11379,2.35,2.46,2.44,2.94,2.95,2.98,2.85,3.89,3.04,3.94,4.06,3.96,3.95,3.87,3.67,3057,12.7375,62285.4375,1.284998,981.870178,-210.249496,1.89722827622468,2.32951261587459,2.27973978770728,17.233747,817.528992,157.499969,104.995514,1204.381958,0.30915,"LATERAL"
201,17,18,5.441,5748.66,-0.410395,0.421263,-0.53944,0.602593,-0.93492,0.30195,-0.06376,5745.42,-0.511661,-0.545682,0.380281,-0.543894,-0.2414,0.94289,-0.11651,2.35,2.46,2.44,2.94,2.95,2.98,2.85,3.89,3.04,3.94,4.07,3.97,3.96,3.87,3.67,3058,12.741667,62285.441667,1.284998,981.870178,-210.249496,1.89720344954655,2.32949224227117,2.27977563112696,17.24411,817.533997,157.491364,105.0084,1204.421143,0.359557,"LATERAL"
202,17,18,5.477,5748.68,-0.410367,0.421213,-0.539402,0.602681,-0.93741,0.30134,-0.06248,5745.44,-0.514469,-0.542406,0.382854,-0.542715,-0.18223,0.92768,-0.11539,2.35,2.46,2.44,2.94,2.95,2.98,2.85,3.89,3.05,3.94,4.07,3.98,3.96,3.87,3.67,3067,12.779167,62285.479167,1.284998,981.870178,-210.249496,1.89722392819922,2.32946757015249,2.27978797231005,17.299091,817.608398,157.458893,105.187157,1204.7854,0.712794,"LATERAL"
203,17,18,5.483,5748.7,-0.410298,0.421123,-0.539364,0.602825,-0.93497,0.30232,-0.06656,5745.46,-0.516353,-0.539049,0.385809,-0.542179,-0.18276,0.94052,-0.1106,2.35,2.46,2.44,2.94,2.95,2.98,2.85,3.89,3.05,3.94,4.08,4,3.96,3.86,3.67,3068,12.783333,62285.483333,1.284998,981.870178,-210.249496,1.89724818548434,2.32948121442103,2.27975927728238,17.298229,817.620544,157.453262,105.213989,1204.8302,0.745096,"LATERAL"
204,17,18,5.517,5748.72,-0.410287,0.421124,-0.539311,0.602879,-0.93155,0.30385,-0.06731,5745.48,-0.518651,-0.536313,0.388328,-0.540899,-0.1812,0.93192,-0.10733,2.35,2.46,2.44,2.94,2.95,2.98,2.85,3.89,3.06,3.94,4.08,4,3.97,3.86,3.67,3077,12.820833,62285.520833,1.284998,981.870178,-210.249496,1.89736719363079,2.32949991280883,2.27966722257072,17.334869,817.707153,157.391556,105.44416,1205.249878,1.115394,"LATERAL"
205,17,18,5.522,5748.74,-0.410248,0.421169,-0.539206,0.602968,-0.93433,0.30347,-0.06412,5745.5,-0.520619,-0.533894,0.390794,-0.539623,-0.17859,0.93884,-0.10458,2.35,2.46,2.44,2.94,2.95,2.98,2.85,3.89,3.06,3.93,4.08,4.01,3.97,3.85,3.67,3078,12.825,62285.525,1.284998,981.870178,-210.249496,1.89741158671578,2.32950605247022,2.27963372129991,17.343773,817.712036,157.384033,105.478371,1205.29541,1.148849,"LATERAL"
206,17,18,5.567,5748.76,-0.410121,0.421166,-0.539159,0.603098,-0.93668,0.30364,-0.06759,5745.52,-0.522356,-0.531562,0.393179,-0.538514,-0.19599,0.95201,-0.10829,2.35,2.46,2.44,2.94,2.95,2.99,2.85,3.89,3.07,3.93,4.08,4.02,3.98,3.85,3.68,3089,12.870833,62285.570833,1.284998,981.870178,-210.249496,1.89780882223833,2.32940252273439,2.27949391713112,17.420919,817.810486,157.304962,105.778038,1205.651123,1.474015,"LATERAL"
207,17,18,5.573,5748.78,-0.410135,0.421176,-0.539099,0.603136,-0.93966,0.30123,-0.06417,5745.54,-0.523674,-0.529064,0.395637,-0.537892,-0.06874,0.94681,-0.10985,2.35,2.46,2.44,2.94,2.95,2.99,2.85,3.89,3.08,3.93,4.08,4.03,3.98,3.85,3.67,3090,12.875,62285.575,1.284998,981.870178,-210.249496,1.89786271802198,2.3293533661198,2.279510404905,17.425476,817.819214,157.294266,105.809868,1205.672119,1.508935,"LATERAL"
208,17,18,5.596,5748.8,-0.410214,0.421221,-0.53911,0.603041,-0.93767,0.29738,-0.0648,5745.56,-0.525805,-0.527011,0.397225,-0.536657,-0.16143,0.94625,-0.12723,2.35,2.46,2.44,2.94,2.95,2.98,2.85,3.89,3.08,3.93,4.09,4.03,3.99,3.85,3.67,3096,12.9,62285.6,1.284998,981.870178,-210.249496,1.89811687036267,2.32914095516956,2.27956849310579,17.477209,817.869202,157.259888,105.986267,1205.831787,1.721883,"LATERAL"
209,17,18,5.602,5748.82,-0.410278,0.421181,-0.53904,0.603088,-0.93659,0.29984,-0.06451,5745.58,-0.527484,-0.52519,0.399212,-0.535318,-0.14723,0.95006,-0.1341,2.35,2.46,2.44,2.94,2.95,2.99,2.85,3.89,3.09,3.93,4.09,4.04,4,3.84,3.67,3097,12.904167,62285.604167,1.284998,981.870178,-210.249496,1.89818336899625,2.32909844607162,2.27957047023381,17.489231,817.875488,157.25885,106.024658,1205.859985,1.758574,"LATERAL"
210,17,18,5.635,5748.84,-0.410369,0.421108,-0.538982,0.603127,-0.93536,0.3,-0.06513,5745.6,-0.528974,-0.523418,0.401082,-0.534185,-0.14211,0.95489,-0.122,2.35,2.46,2.44,2.94,2.95,2.99,2.85,3.89,3.1,3.93,4.09,4.05,4,3.84,3.67,3105,12.9375,62285.6375,1.284998,981.870178,-210.249496,1.89877904607202,2.32872675410629,2.27957866826684,17.56712,817.94104,157.250336,106.339417,1206.051758,2.025429,"LATERAL"
211,17,18,5.641,5748.86,-0.410474,0.421079,-0.53901,0.603052,-0.93614,0.30028,-0.06299,5745.62,-0.530642,-0.521661,0.402694,-0.533035,-0.12186,0.95445,-0.12059,2.35,2.46,2.44,2.94,2.95,2.99,2.85,3.89,3.11,3.93,4.09,4.05,4,3.84,3.67,3106,12.941667,62285.641667,1.284998,981.870178,-210.249496,1.89886204066533,2.32867728285243,2.27957742427682,17.57962,817.945618,157.250717,106.380203,1206.072388,2.055752,"LATERAL"
212,17,18,5.678,5748.88,-0.410609,0.420987,-0.538967,0.603062,-0.93393,0.30334,-0.06442,5745.64,-0.532216,-0.519958,0.404388,-0.531846,-0.11201,0.95236,-0.12573,2.35,2.46,2.44,2.94,2.95,2.99,2.84,3.89,3.11,3.93,4.09,4.06,4.01,3.84,3.68,3115,12.979167,62285.679167,1.284998,981.870178,-210.249496,1.89952125635524,2.32837629847844,2.27947423442633,17.655083,818.002991,157.251175,106.689835,1206.226929,2.24411,"LATERAL"
213,17,18,5.684,5748.9,-0.410726,0.42092,-0.538939,0.603055,-0.93495,0.30366,-0.06543,5745.66,-0.533725,-0.518327,0.406239,-0.530513,-0.10556,0.93827,-0.14219,2.35,2.46,2.44,2.94,2.95,2.99,2.84,3.89,3.12,3.93,4.09,4.06,4.01,3.84,3.68,3117,12.9875,62285.6875,1.284998,981.870178,-210.249496,1.89966321659628,2.32831046249335,2.27945295027466,17.665882,818.01947,157.251755,106.751083,1206.248291,2.273859,"LATERAL"
214,17,18,5.716,5748.92,-0.410874,0.42082,-0.538882,0.603075,-0.93572,0.30239,-0.06778,5745.68,-0.535471,-0.516489,0.4084,-0.528885,-0.10938,0.94006,-0.11642,2.35,2.46,2.44,2.94,2.95,2.99,2.84,3.89,3.13,3.93,4.09,4.07,4.02,3.83,3.67,3124,13.016667,62285.716667,1.284998,981.870178,-210.249496,1.89990881491759,2.32816085930923,2.27945212177288,17.728907,818.06012,157.249863,106.846725,1206.254761,2.313409,"LATERAL"
215,17,18,5.721,5748.94,-0.41098,0.420728,-0.538803,0.603137,-0.93555,0.30179,-0.06815,5745.7,-0.535094,-0.51406,0.411358,-0.529341,-0.17939,0.94155,-0.13423,2.35,2.46,2.44,2.93,2.95,2.99,2.84,3.89,3.13,3.93,4.09,4.07,4.02,3.83,3.68,3126,13.025,62285.725,1.284998,981.870178,-210.249496,1.89995468176755,2.32815755389795,2.27942706833185,17.738058,818.073181,157.255447,106.861328,1206.254883,2.308055,"LATERAL"
216,17,18,5.772,5748.96,-0.411074,0.420705,-0.53868,0.6032,-0.93724,0.30153,-0.06689,5745.72,-0.536361,-0.512627,0.412222,-0.528775,0.00028,0.90442,-0.12669,2.36,2.46,2.43,2.93,2.95,2.99,2.84,3.88,3.13,3.93,4.09,4.08,4.02,3.83,3.68,3138,13.075,62285.775,1.284998,981.870178,-210.249496,1.90024265994404,2.32789315178744,2.27951584741283,17.801739,818.038696,157.329193,106.971901,1206.237915,2.373464,"LATERAL"
217,17,18,5.777,5748.98,-0.411151,0.420691,-0.538559,0.603265,-0.933,0.30047,-0.06737,5745.74,-0.53672,-0.511408,0.413651,-0.528476,-0.12701,0.95408,-0.1405,2.36,2.45,2.43,2.93,2.96,2.98,2.83,3.88,3.14,3.92,4.09,4.08,4.03,3.83,3.68,3139,13.079167,62285.779167,1.284998,981.870178,-210.249496,1.90026334041935,2.32789201803133,2.27950418062124,17.797581,818.044495,157.325043,106.979973,1206.241211,2.373949,"LATERAL"
218,17,18,5.797,5749,-0.411214,0.420746,-0.538439,0.60329,-0.93555,0.29714,-0.06867,5745.76,-0.536524,-0.510723,0.415358,-0.527998,-0.10121,0.9707,-0.14509,2.36,2.45,2.42,2.93,2.96,2.98,2.83,3.88,3.14,3.92,4.09,4.08,4.03,3.83,3.68,3144,13.1,62285.8,1.284998,981.870178,-210.249496,1.90027192396989,2.32794041472147,2.27944996888375,17.795282,818.058044,157.314835,106.983711,1206.255005,2.362685,"LATERAL"
219,17,18,5.803,5749.02,-0.411249,0.420763,-0.538295,0.603384,-0.93808,0.30144,-0.06473,5745.78,-0.536463,-0.510014,0.416804,-0.527606,-0.08146,0.96078,-0.13602,2.36,2.45,2.42,2.93,2.96,2.98,2.83,3.88,3.15,3.92,4.1,4.09,4.03,3.83,3.68,3145,13.104167,62285.804167,1.284998,981.870178,-210.249496,1.90027826089721,2.32798020212304,2.27940584582058,17.79604,818.054077,157.305756,106.983635,1206.260132,2.347648,"LATERAL"
220,17,18,5.835,5749.04,-0.411239,0.420876,-0.538167,0.603425,-0.93166,0.30235,-0.0708,5745.8,-0.536499,-0.509428,0.417869,-0.527292,-0.07682,0.94252,-0.12448,2.37,2.44,2.41,2.93,2.96,2.98,2.82,3.88,3.16,3.92,4.1,4.09,4.04,3.83,3.68,3153,13.1375,62285.8375,1.284998,981.870178,-210.249496,1.90037820963858,2.32812045163366,2.27920220900241,17.765879,818.088928,157.242554,107.018051,1206.300903,2.304213,"LATERAL"
221,17,18,5.84,5749.06,-0.411162,0.421034,-0.538059,0.603464,-0.92873,0.29942,-0.06975,5745.82,-0.535997,-0.509275,0.418964,-0.527082,-0.08316,0.92913,-0.12136,2.37,2.44,2.41,2.93,2.96,2.98,2.82,3.88,3.16,3.91,4.09,4.09,4.04,3.82,3.68,3154,13.141667,62285.841667,1.284998,981.870178,-210.249496,1.90039504160192,2.32811590093756,2.27919637442353,17.755772,818.09375,157.233795,107.027214,1206.308228,2.310726,"LATERAL"
222,17,18,5.874,5749.08,-0.411046,0.42116,-0.537946,0.603555,-0.93562,0.29513,-0.07103,5745.84,-0.534914,-0.509694,0.419861,-0.527064,-0.08648,0.93652,-0.12709,2.37,2.44,2.4,2.93,2.97,2.98,2.81,3.88,3.17,3.91,4.1,4.09,4.04,3.83,3.68,3162,13.175,62285.875,1.284998,981.870178,-210.249496,1.90058433994017,2.32831042908662,2.27888245042746,17.701721,818.113159,157.10675,107.095894,1206.375977,2.253248,"LATERAL"
223,17,18,5.895,5749.1,-0.411011,0.421394,-0.537839,0.603511,-0.94413,0.29499,-0.0659,5745.86,-0.534023,-0.510043,0.419918,-0.527584,-0.07413,0.92667,-0.12108,2.37,2.44,2.4,2.92,2.97,2.98,2.81,3.88,3.18,3.91,4.1,4.1,4.05,3.83,3.67,3167,13.195833,62285.895833,1.284998,981.870178,-210.249496,1.90078367510916,2.32849124418008,2.2785760644293,17.671127,818.120361,157.008316,107.124786,1206.349487,2.111533,"LATERAL"
224,17,18,5.9,5749.12,-0.410945,0.421446,-0.53782,0.603537,-0.94341,0.29616,-0.06777,5745.88,-0.533607,-0.509844,0.419254,-0.528724,-0.07446,0.92072,-0.11461,2.37,2.43,2.4,2.93,2.97,2.98,2.8,3.88,3.18,3.9,4.1,4.1,4.05,3.83,3.67,3168,13.2,62285.9,1.284998,981.870178,-210.249496,1.90085711955639,2.32850460725438,2.27851697797177,17.666315,818.114258,156.993484,107.137466,1206.331421,2.07678,"LATERAL"
225,17,18,5.935,5749.14,-0.410897,0.421482,-0.537812,0.603552,-0.93488,0.29677,-0.06864,5745.9,-0.532601,-0.510296,0.41867,-0.529763,-0.09194,0.92848,-0.11808,2.37,2.43,2.4,2.93,2.98,2.98,2.8,3.88,3.19,3.9,4.1,4.1,4.05,3.82,3.67,3177,13.2375,62285.9375,1.284998,981.870178,-210.249496,1.90143274335372,2.3287231918259,2.2779384651351,17.640095,818.062012,156.886734,107.227859,1206.19812,1.75819,"LATERAL"
226,17,18,5.94,5749.16,-0.410978,0.421609,-0.537885,0.603342,-0.93546,0.29478,-0.0674,5745.92,-0.531023,-0.511307,0.418426,-0.530565,-0.09813,0.95311,-0.12334,2.37,2.43,2.39,2.92,2.98,2.98,2.79,3.88,3.2,3.9,4.1,4.1,4.06,3.82,3.67,3178,13.241667,62285.941667,1.284998,981.870178,-210.249496,1.90148601754114,2.32872090544451,2.27790765220667,17.63509,818.0625,156.880157,107.236717,1206.181519,1.735369,"LATERAL"
227,17,18,5.977,5749.18,-0.411016,0.421534,-0.537983,0.603282,-0.93923,0.29447,-0.06555,5745.94,-0.529478,-0.512203,0.417829,-0.531714,-0.09508,0.96282,-0.12013,2.37,2.43,2.38,2.92,2.98,2.98,2.79,3.88,3.2,3.9,4.1,4.1,4.06,3.82,3.67,3187,13.279167,62285.979167,1.284998,981.870178,-210.249496,1.901808615219,2.32906268889172,2.27736142624801,17.66168,818.054932,156.827225,107.22525,1206.027588,1.378047,"LATERAL"
228,17,18,5.982,5749.2,-0.410886,0.421621,-0.538234,0.603086,-0.93605,0.29724,-0.06527,5745.96,-0.528017,-0.512993,0.416811,-0.533203,-0.10514,0.96115,-0.12287,2.38,2.42,2.38,2.92,2.98,2.98,2.79,3.88,3.2,3.89,4.1,4.1,4.06,3.82,3.67,3188,13.283333,62285.983333,1.284998,981.870178,-210.249496,1.90183426053073,2.32911014658441,2.27729747939828,17.666519,818.051147,156.825531,107.220001,1206.010986,1.335918,"LATERAL"
229,17,18,6.029,5749.22,-0.410885,0.42154,-0.538311,0.603074,-0.92702,0.30317,-0.06585,5745.98,-0.526555,-0.513713,0.415862,-0.534693,-0.11424,0.95532,-0.12469,2.38,2.42,2.38,2.91,2.99,2.98,2.78,3.88,3.21,3.89,4.1,4.1,4.06,3.82,3.67,3199,13.329167,62286.029167,1.284998,981.870178,-210.249496,1.90187150964132,2.32959844161853,2.27678052297847,17.724991,818.045959,156.856522,107.060646,1205.764893,0.866759,"LATERAL"
230,17,18,6.035,5749.24,-0.410842,0.421436,-0.538357,0.603136,-0.93307,0.30532,-0.06641,5746,-0.525119,-0.514477,0.414743,-0.536239,-0.11775,0.95984,-0.11091,2.38,2.42,2.38,2.91,2.99,2.98,2.78,3.87,3.21,3.89,4.1,4.11,4.06,3.82,3.67,3201,13.3375,62286.0375,1.284998,981.870178,-210.249496,1.9018569284115,2.3296803922349,2.27670672273257,17.738796,818.044434,156.863144,107.025452,1205.719238,0.787199,"LATERAL"
231,17,18,6.054,5749.26,-0.41071,0.421318,-0.538515,0.603167,-0.93914,0.30643,-0.06524,5746.02,-0.52384,-0.514905,0.413428,-0.538091,-0.11982,0.97557,-0.10135,2.38,2.42,2.37,2.9,3,2.98,2.77,3.87,3.21,3.88,4.1,4.1,4.06,3.82,3.67,3205,13.354167,62286.054167,1.284998,981.870178,-210.249496,1.90170546887088,2.32986866650214,2.27661059551169,17.771719,818.034851,156.881989,106.917885,1205.634521,0.641676,"LATERAL"
232,17,18,6.076,5749.28,-0.410715,0.421188,-0.538574,0.603202,-0.93802,0.30709,-0.06667,5746.04,-0.522304,-0.51551,0.412268,-0.539892,-0.12992,0.9782,-0.1227,2.38,2.42,2.37,2.91,3.01,2.98,2.77,3.88,3.22,3.88,4.1,4.11,4.06,3.81,3.67,3211,13.379167,62286.079167,1.284998,981.870178,-210.249496,1.90146420641525,2.33034448158952,2.27627944714392,17.81259,818.038696,156.926331,106.751137,1205.550415,0.374872,"LATERAL"
233,17,18,6.082,5749.3,-0.410611,0.421065,-0.538703,0.603243,-0.93466,0.30577,-0.0675,5746.06,-0.520403,-0.516245,0.411112,-0.541902,-0.14406,0.9747,-0.14697,2.38,2.42,2.36,2.91,3.02,2.98,2.76,3.88,3.22,3.88,4.1,4.11,4.06,3.81,3.66,3212,13.383333,62286.083333,1.284998,981.870178,-210.249496,1.90143820117027,2.33038942382842,2.27625016261074,17.814205,818.042297,156.936707,106.730675,1205.534546,0.342721,"LATERAL"
234,17,18,6.116,5749.32,-0.410576,0.420965,-0.538751,0.603294,-0.93386,0.30307,-0.06646,5746.08,-0.518917,-0.516658,0.409808,-0.543918,-0.14378,0.96423,-0.1317,2.38,2.43,2.36,2.91,3.03,2.98,2.75,3.88,3.23,3.87,4.1,4.11,4.07,3.81,3.66,3220,13.416667,62286.116667,1.284998,981.870178,-210.249496,1.90138672818349,2.33088561946176,2.2757801944163,17.86915,818.036804,156.992294,106.615822,1205.441162,0.028767,"LATERAL"
235,17,18,6.121,5749.34,-0.410545,0.420864,-0.538768,0.60337,-0.93359,0.302,-0.06665,5746.1,-0.517613,-0.516977,0.408347,-0.545953,-0.13475,0.98975,-0.11117,2.38,2.43,2.36,2.91,3.03,2.98,2.75,3.88,3.23,3.86,4.1,4.11,4.07,3.82,3.66,3222,13.425,62286.125,1.284998,981.870178,-210.249496,1.90136799465809,2.33098219451224,2.27569413381435,17.863747,818.037476,156.999161,106.585861,1205.412476,-0.040835,"LATERAL"
236,17,18,6.156,5749.36,-0.410504,0.420776,-0.538771,0.603457,-0.93508,0.30322,-0.06927,5746.12,-0.516253,-0.51741,0.407011,-0.547826,-0.14329,0.99095,-0.11007,2.38,2.43,2.36,2.92,3.04,2.98,2.74,3.87,3.24,3.86,4.1,4.11,4.07,3.81,3.67,3230,13.458333,62286.158333,1.284998,981.870178,-210.249496,1.90100471658064,2.33153145893727,2.2753642240647,17.856117,818.069031,156.97171,106.393745,1205.370117,-0.283447,"LATERAL"
237,17,18,6.163,5749.38,-0.410487,0.420717,-0.538721,0.603554,-0.9368,0.30362,-0.0663,5746.14,-0.514739,-0.518307,0.405816,-0.549285,-0.15271,0.9688,-0.12198,2.37,2.43,2.36,2.93,3.04,2.98,2.73,3.88,3.25,3.85,4.1,4.11,4.07,3.82,3.66,3232,13.466667,62286.166667,1.284998,981.870178,-210.249496,1.90091833672669,2.33169524794327,2.27525215316667,17.849335,818.077698,156.951157,106.346252,1205.363892,-0.35309,"LATERAL"
238,17,18,6.198,5749.4,-0.410466,0.420737,-0.538655,0.603613,-0.936,0.30068,-0.06944,5746.16,-0.513103,-0.51952,0.404496,-0.550643,-0.15719,0.94519,-0.12387,2.37,2.43,2.36,2.93,3.05,2.98,2.72,3.87,3.25,3.85,4.1,4.11,4.07,3.82,3.66,3240,13.5,62286.2,1.284998,981.870178,-210.249496,1.90061457795327,2.33213420887558,2.27499658292085,17.822659,818.078552,156.869263,106.179138,1205.309326,-0.56409,"LATERAL"
239,17,18,6.204,5749.42,-0.410381,0.420749,-0.538606,0.603706,-0.93551,0.29844,-0.06759,5746.18,-0.511487,-0.520656,0.402927,-0.552222,-0.15724,0.94111,-0.11644,2.37,2.43,2.37,2.94,3.06,2.98,2.71,3.88,3.25,3.84,4.1,4.11,4.07,3.82,3.66,3241,13.504167,62286.204167,1.284998,981.870178,-210.249496,1.90058206864257,2.33218504636455,2.27496531442461,17.821886,818.068665,156.853745,106.157394,1205.296143,-0.595363,"LATERAL"
240,17,18,6.238,5749.44,-0.410312,0.420827,-0.538515,0.60378,-0.93455,0.29717,-0.06893,5746.2,-0.509899,-0.521985,0.400964,-0.553862,-0.15597,0.94842,-0.11471,2.36,2.43,2.37,2.94,3.07,2.98,2.7,3.87,3.26,3.83,4.1,4.11,4.07,3.81,3.67,3250,13.541667,62286.241667,1.284998,981.870178,-210.249496,1.90014617373285,2.33271291685944,2.27470151100173,17.808407,818.023987,156.759033,105.897179,1205.149536,-0.913919,"LATERAL"
241,17,18,6.246,5749.46,-0.410372,0.420864,-0.538461,0.603762,-0.94318,0.29454,-0.06515,5746.22,-0.508193,-0.523471,0.39891,-0.555508,-0.16319,0.9389,-0.12198,2.36,2.43,2.37,2.95,3.08,2.98,2.69,3.87,3.26,3.83,4.1,4.1,4.07,3.81,3.67,3252,13.55,62286.25,1.284998,981.870178,-210.249496,1.90005644130326,2.33281795181983,2.27465083721874,17.801008,818.014893,156.752808,105.844139,1205.119507,-0.977603,"LATERAL"
242,17,18,6.276,5749.48,-0.410397,0.420766,-0.538492,0.603785,-0.93584,0.29466,-0.06698,5746.24,-0.50604,-0.525231,0.396801,-0.557319,-0.17932,0.9246,-0.1283,2.36,2.43,2.37,2.96,3.09,2.98,2.68,3.87,3.26,3.82,4.1,4.11,4.07,3.81,3.67,3259,13.579167,62286.279167,1.284998,981.870178,-210.249496,1.89975231585258,2.33307538861899,2.27457875688967,17.778179,818.008972,156.728836,105.659401,1204.983765,-1.178998,"LATERAL"
243,17,18,6.282,5749.5,-0.410432,0.420753,-0.538546,0.603723,-0.93396,0.29836,-0.06606,5746.26,-0.503471,-0.527229,0.394429,-0.559439,-0.19172,0.91211,-0.11832,2.36,2.43,2.37,2.96,3.1,2.98,2.66,3.87,3.27,3.82,4.09,4.11,4.07,3.81,3.67,3260,13.583333,62286.283333,1.284998,981.870178,-210.249496,1.89967631640107,2.33310183383146,2.27459907645401,17.778044,818.008057,156.720551,105.622711,1204.961182,-1.200945,"LATERAL"
244,17,18,6.317,5749.52,-0.410427,0.420678,-0.538526,0.603796,-0.93206,0.29914,-0.06693,5746.28,-0.500709,-0.529009,0.391697,-0.56215,-0.19894,0.90062,-0.11101,2.35,2.43,2.37,2.97,3.11,2.98,2.65,3.87,3.27,3.81,4.1,4.11,4.07,3.81,3.67,3269,13.620833,62286.320833,1.284998,981.870178,-210.249496,1.89850098884961,2.33332854597132,2.27509661148368,17.729786,817.968506,156.746155,105.137947,1204.745117,-1.330618,"LATERAL"
245,17,18,6.323,5749.54,-0.41032,0.420688,-0.538433,0.603945,-0.93269,0.30518,-0.06815,5746.3,-0.497213,-0.530819,0.388528,-0.565735,-0.22084,0.88933,-0.1258,2.35,2.44,2.38,2.98,3.11,2.98,2.63,3.87,3.28,3.81,4.1,4.11,4.07,3.81,3.67,3270,13.625,62286.325,1.284998,981.870178,-210.249496,1.8983266172019,2.33345382897118,2.27507745991946,17.717392,817.970093,156.761688,105.061745,1204.725098,-1.381483,"LATERAL"
246,17,18,6.357,5749.56,-0.410095,0.42072,-0.538361,0.604139,-0.93488,0.30715,-0.06958,5746.32,-0.493482,-0.533059,0.38491,-0.569358,-0.21866,0.88224,-0.16014,2.34,2.44,2.38,2.99,3.12,2.98,2.62,3.87,3.28,3.8,4.1,4.11,4.07,3.81,3.67,3278,13.658333,62286.358333,1.284998,981.870178,-210.249496,1.89729737612184,2.33385859924653,2.27530222472515,17.614941,817.891296,156.904053,104.471436,1204.224976,-1.88334,"LATERAL"
247,17,18,6.364,5749.58,-0.409938,0.420756,-0.538307,0.604269,-0.93757,0.30453,-0.06756,5746.34,-0.490295,-0.534814,0.380905,-0.573147,-0.22433,0.86009,-0.1529,2.34,2.44,2.38,3,3.13,2.98,2.6,3.87,3.28,3.8,4.1,4.1,4.07,3.81,3.67,3280,13.666667,62286.366667,1.284998,981.870178,-210.249496,1.89712634561856,2.33392021631988,2.27534511918051,17.588539,817.851685,156.94548,104.334259,1204.055908,-2.04468,"LATERAL"
248,17,18,6.397,5749.6,-0.409794,0.420747,-0.538202,0.604467,-0.93536,0.3024,-0.07124,5746.36,-0.487013,-0.536209,0.376845,-0.577309,-0.23802,0.90004,-0.1317,2.33,2.45,2.38,3,3.13,2.98,2.59,3.87,3.28,3.79,4.1,4.11,4.07,3.81,3.67,3288,13.7,62286.4,1.284998,981.870178,-210.249496,1.89624416574035,2.33422948702458,2.27557426267782,17.45249,817.701294,157.09993,103.718971,1203.378174,-2.69093,"LATERAL"
249,17,18,6.404,5749.62,-0.409684,0.420811,-0.538078,0.604607,-0.9312,0.30772,-0.07195,5746.38,-0.483324,-0.53815,0.372917,-0.581141,-0.26451,0.94306,-0.13719,2.33,2.45,2.38,3.01,3.14,2.98,2.58,3.87,3.29,3.79,4.1,4.11,4.07,3.81,3.67,3289,13.704167,62286.404167,1.284998,981.870178,-210.249496,1.89610631388308,2.33434310934411,2.27554386417176,17.430319,817.692627,157.116211,103.632133,1203.307129,-2.789547,"LATERAL"
250,17,18,6.434,5749.64,-0.409567,0.4209,-0.53795,0.604739,-0.93117,0.31016,-0.07415,5746.4,-0.479217,-0.54049,0.369227,-0.584716,-0.26835,0.94941,-0.15914,2.33,2.45,2.38,3.01,3.14,2.98,2.57,3.87,3.29,3.78,4.1,4.11,4.07,3.82,3.67,3297,13.7375,62286.4375,1.284998,981.870178,-210.249496,1.89496296805934,2.33494004270402,2.27564019504623,17.304703,817.605713,157.213547,102.939095,1202.693481,-3.469941,"LATERAL"
251,17,18,6.458,5749.66,-0.409322,0.42106,-0.537778,0.604945,-0.92791,0.3028,-0.07549,5746.42,-0.475273,-0.542446,0.365123,-0.588688,-0.28911,0.9391,-0.16548,2.32,2.45,2.38,3.02,3.15,2.98,2.55,3.87,3.29,3.78,4.1,4.11,4.07,3.82,3.68,3302,13.758333,62286.458333,1.284998,981.870178,-210.249496,1.89468459454517,2.33530494015095,2.27544107312375,17.220705,817.551514,157.24057,102.63578,1202.301025,-3.964291,"LATERAL"
252,17,18,6.464,5749.68,-0.409002,0.421278,-0.537644,0.605128,-0.92639,0.30209,-0.07024,5746.44,-0.471672,-0.544274,0.360633,-0.592651,-0.29088,0.92616,-0.15587,2.31,2.45,2.38,3.03,3.15,2.98,2.54,3.87,3.29,3.78,4.1,4.11,4.07,3.82,3.68,3304,13.766667,62286.466667,1.284998,981.870178,-210.249496,1.89459491726274,2.33542491289054,2.27537444283087,17.192402,817.518005,157.238724,102.522369,1202.140747,-4.156217,"LATERAL"
253,17,18,6.497,5749.7,-0.408679,0.42147,-0.537571,0.605278,-0.93305,0.30294,-0.07173,5746.46,-0.468337,-0.546771,0.356241,-0.595646,-0.30664,0.93113,-0.12781,2.31,2.45,2.39,3.03,3.15,2.98,2.53,3.87,3.3,3.77,4.1,4.11,4.07,3.82,3.68,3312,13.8,62286.5,1.284998,981.870178,-210.249496,1.89384571206437,2.33588872623038,2.27536239013486,17.068655,817.407593,157.188126,101.954407,1201.501221,-4.856778,"LATERAL"
254,17,18,6.503,5749.72,-0.408411,0.421582,-0.537551,0.605399,-0.94095,0.30284,-0.06656,5746.48,-0.464622,-0.550177,0.352117,-0.597867,-0.30397,0.94472,-0.11754,2.3,2.46,2.38,3.04,3.16,2.98,2.52,3.87,3.29,3.77,4.1,4.11,4.07,3.82,3.68,3313,13.804167,62286.504167,1.284998,981.870178,-210.249496,1.89376748641343,2.33595097723987,2.27534708358209,17.053476,817.396973,157.176605,101.893539,1201.43396,-4.936686,"LATERAL"
255,17,18,6.535,5749.74,-0.40828,0.421592,-0.537658,0.605385,-0.94078,0.30244,-0.06384,5746.5,-0.460815,-0.553421,0.347581,-0.600468,-0.33583,0.90841,-0.13062,2.3,2.46,2.39,3.04,3.16,2.98,2.51,3.87,3.3,3.77,4.1,4.11,4.07,3.82,3.68,3321,13.8375,62286.5375,1.284998,981.870178,-210.249496,1.89316512326059,2.33672134508788,2.27493421368018,16.971287,817.327515,157.055603,101.38472,1200.892944,-5.706099,"LATERAL"
256,17,18,6.54,5749.76,-0.408304,0.421632,-0.537856,0.605165,-0.93635,0.29865,-0.06452,5746.52,-0.458107,-0.555532,0.341266,-0.604202,-0.34764,0.85451,-0.1371,2.29,2.46,2.38,3.05,3.17,2.98,2.51,3.87,3.3,3.77,4.1,4.11,4.07,3.82,3.68,3322,13.841667,62286.541667,1.284998,981.870178,-210.249496,1.89314775843714,2.33680621347318,2.27485885119102,16.954977,817.319031,157.043182,101.343575,1200.833618,-5.797687,"LATERAL"
257,17,18,6.575,5749.78,-0.408316,0.421547,-0.538007,0.605082,-0.9363,0.29626,-0.05943,5746.54,-0.456089,-0.557216,0.333872,-0.608295,-0.36464,0.84701,-0.1107,2.29,2.46,2.38,3.06,3.17,2.98,2.5,3.87,3.3,3.76,4.11,4.11,4.07,3.82,3.68,3330,13.875,62286.575,1.284998,981.870178,-210.249496,1.8932805207356,2.33724865631266,2.27432990591449,16.883846,817.256042,156.948212,101.112663,1200.341919,-6.477584,"LATERAL"
258,17,18,6.58,5749.8,-0.408226,0.421643,-0.538273,0.60484,-0.93645,0.29675,-0.06247,5746.56,-0.452638,-0.560306,0.327126,-0.61169,-0.37749,0.89232,-0.11227,2.29,2.46,2.38,3.06,3.17,2.99,2.5,3.87,3.3,3.76,4.1,4.11,4.07,3.82,3.68,3332,13.883333,62286.583333,1.284998,981.870178,-210.249496,1.89330717125698,2.3373263846657,2.27423493945648,16.85767,817.245544,156.926559,101.070007,1200.248779,-6.603699,"LATERAL"
259,17,18,6.615,5749.82,-0.408212,0.421528,-0.538438,0.604782,-0.93855,0.29994,-0.06234,5746.58,-0.447069,-0.56509,0.321769,-0.61422,-0.4171,0.88271,-0.14083,2.29,2.46,2.38,3.07,3.18,2.99,2.49,3.87,3.3,3.76,4.11,4.11,4.07,3.82,3.68,3340,13.916667,62286.616667,1.284998,981.870178,-210.249496,1.89302967057488,2.33796735818638,2.27375470812487,16.811199,817.249451,156.857117,100.825882,1200.040649,-7.048218,"LATERAL"
260,17,18,6.62,5749.84,-0.408244,0.421333,-0.53864,0.604717,-0.93827,0.3028,-0.0599,5746.6,-0.440933,-0.570469,0.316403,-0.616468,-0.44887,0.86101,-0.16227,2.28,2.46,2.38,3.07,3.18,2.99,2.49,3.87,3.3,3.76,4.11,4.11,4.07,3.82,3.68,3341,13.920833,62286.620833,1.284998,981.870178,-210.249496,1.89302486419808,2.33807930028577,2.27364422712795,16.809008,817.252502,156.850449,100.809776,1200.033813,-7.104663,"LATERAL"
261,17,18,6.655,5749.86,-0.408261,0.421153,-0.538788,0.604699,-0.93591,0.30491,-0.06503,5746.62,-0.435284,-0.575743,0.309837,-0.61891,-0.45785,0.81948,-0.16176,2.28,2.46,2.38,3.08,3.19,2.99,2.49,3.87,3.3,3.76,4.11,4.1,4.07,3.82,3.68,3350,13.958333,62286.658333,1.284998,981.870178,-210.249496,1.89315098775775,2.33882719249214,2.27280955761747,16.801235,817.286743,156.791397,100.700279,1199.880371,-7.604712,"LATERAL"
262,17,18,6.66,5749.88,-0.408264,0.420996,-0.538909,0.604698,-0.93276,0.30976,-0.06885,5746.64,-0.430368,-0.580204,0.302713,-0.6217,-0.49348,0.83236,-0.12195,2.28,2.46,2.37,3.09,3.19,2.99,2.49,3.87,3.31,3.76,4.11,4.11,4.07,3.82,3.68,3351,13.9625,62286.6625,1.284998,981.870178,-210.249496,1.89322012942838,2.33888476469377,2.27270906855278,16.796844,817.290588,156.785248,100.698898,1199.845215,-7.67354,"LATERAL"
263,17,18,6.696,5749.9,-0.408184,0.421023,-0.539077,0.604584,-0.9394,0.30687,-0.06571,5746.66,-0.425422,-0.584356,0.295946,-0.624468,-0.4858,0.88906,-0.10709,2.28,2.46,2.37,3.09,3.19,2.99,2.49,3.87,3.31,3.76,4.11,4.1,4.07,3.82,3.68,3360,14,62286.7,1.284998,981.870178,-210.249496,1.89326539357798,2.33940539861113,2.27215375417349,16.825443,817.258423,156.787964,100.484131,1199.462036,-8.27132,"LATERAL"
264,17,18,6.701,5749.92,-0.408106,0.420974,-0.539028,0.604714,-0.94317,0.30896,-0.0659,5746.68,-0.420411,-0.588678,0.290356,-0.626424,-0.49517,0.88586,-0.14973,2.27,2.46,2.36,3.1,3.19,2.99,2.49,3.87,3.3,3.76,4.11,4.11,4.07,3.83,3.69,3361,14.004167,62286.704167,1.284998,981.870178,-210.249496,1.89320774030028,2.33947603680598,2.27211729719246,16.837477,817.255798,156.800278,100.438683,1199.415771,-8.337731,"LATERAL"
265,17,18,6.737,5749.94,-0.407985,0.420983,-0.538968,0.604842,-0.93668,0.31002,-0.06505,5746.7,-0.414812,-0.593432,0.285135,-0.628066,-0.52888,0.82532,-0.17805,2.26,2.46,2.36,3.11,3.2,2.99,2.49,3.87,3.31,3.76,4.11,4.11,4.06,3.83,3.69,3369,14.0375,62286.7375,1.284998,981.870178,-210.249496,1.89322201577075,2.33994279383605,2.27163537704772,16.877348,817.255005,156.87529,100.237045,1199.068848,-8.871947,"LATERAL"
266,17,18,6.741,5749.96,-0.407779,0.421093,-0.539053,0.604829,-0.93295,0.30406,-0.05805,5746.72,-0.409267,-0.597586,0.279861,-0.630135,-0.55059,0.81428,-0.14622,2.26,2.46,2.35,3.11,3.2,3,2.49,3.87,3.31,3.77,4.11,4.1,4.06,3.83,3.69,3370,14.041667,62286.741667,1.284998,981.870178,-210.249496,1.89327753308061,2.33998654665364,2.27155715754476,16.887125,817.251099,156.885696,100.22699,1199.020508,-8.94453,"LATERAL"
267,17,18,6.776,5749.98,-0.407699,0.421042,-0.538955,0.605006,-0.92854,0.30629,-0.06805,5746.74,-0.40372,-0.601718,0.274321,-0.632213,-0.54581,0.83545,-0.12027,2.26,2.46,2.35,3.12,3.2,3,2.49,3.87,3.31,3.77,4.11,4.1,4.06,3.83,3.69,3379,14.079167,62286.779167,1.284998,981.870178,-210.249496,1.89329553925434,2.34052539312603,2.27099974034719,16.92984,817.277832,156.939178,100.043427,1198.726563,-9.461623,"LATERAL"
268,17,18,6.781,5750,-0.407442,0.421084,-0.538786,0.605301,-0.92824,0.31158,-0.06805,5746.76,-0.398546,-0.605915,0.269566,-0.633531,-0.55197,0.84113,-0.12896,2.26,2.46,2.35,3.12,3.2,3,2.5,3.87,3.31,3.77,4.11,4.1,4.06,3.83,3.69,3380,14.083333,62286.783333,1.284998,981.870178,-210.249496,1.8933059035092,2.34057371787227,2.27094440638704,16.930977,817.291199,156.928162,100.033783,1198.709473,-9.500641,"LATERAL"
269,17,18,6.816,5750.02,-0.407226,0.421155,-0.538598,0.605564,-0.93208,0.31346,-0.0659,5746.78,-0.39332,-0.610484,0.264286,-0.634635,-0.58079,0.80519,-0.12136,2.25,2.46,2.35,3.12,3.21,3,2.5,3.87,3.31,3.77,4.12,4.1,4.06,3.83,3.69,3388,14.116667,62286.816667,1.284998,981.870178,-210.249496,1.8938968943556,2.34092564192212,2.27022656300599,16.939795,817.336914,156.830963,100.094177,1198.53772,-9.903335,"LATERAL"
270,17,18,6.821,5750.04,-0.407041,0.421157,-0.538447,0.605821,-0.93658,0.3107,-0.06839,5746.8,-0.388409,-0.615169,0.257505,-0.635922,-0.60128,0.79546,-0.09595,2.25,2.47,2.34,3.13,3.21,3,2.5,3.87,3.31,3.78,4.12,4.1,4.05,3.83,3.69,3390,14.125,62286.825,1.284998,981.870178,-210.249496,1.89414365627933,2.34100534671057,2.26999483096213,16.947212,817.344727,156.790421,100.132408,1198.479736,-10.028578,"LATERAL"
271,17,18,6.855,5750.06,-0.406848,0.421183,-0.538319,0.606046,-0.93588,0.30723,-0.06749,5746.82,-0.384737,-0.619433,0.250636,-0.636759,-0.61745,0.81259,-0.064,2.25,2.47,2.34,3.13,3.21,3,2.5,3.87,3.31,3.78,4.12,4.1,4.05,3.83,3.69,3398,14.158333,62286.858333,1.284998,981.870178,-210.249496,1.89563408579287,2.34126431773404,2.26881846808642,16.978512,817.367371,156.620361,100.433113,1198.234619,-10.588355,"LATERAL"
272,17,18,6.86,5750.08,-0.406768,0.421146,-0.538222,0.606212,-0.93743,0.30178,-0.06412,5746.84,-0.381039,-0.624067,0.245065,-0.636626,-0.57357,0.78366,-0.08037,2.26,2.48,2.34,3.13,3.21,3,2.51,3.87,3.31,3.78,4.12,4.1,4.05,3.83,3.69,3399,14.1625,62286.8625,1.284998,981.870178,-210.249496,1.89579068991386,2.34128673053744,2.26869949707675,16.984322,817.376465,156.610779,100.463608,1198.205566,-10.648087,"LATERAL"
273,17,18,6.897,5750.1,-0.406915,0.421131,-0.538227,0.60612,-0.93938,0.2981,-0.06553,5746.86,-0.375339,-0.629781,0.240448,-0.636146,-0.60531,0.72951,-0.10292,2.25,2.48,2.34,3.13,3.21,3,2.51,3.87,3.31,3.78,4.13,4.09,4.04,3.83,3.69,3408,14.2,62286.9,1.284998,981.870178,-210.249496,1.89695765294965,2.34131710781705,2.26795029043056,17.072109,817.452271,156.563126,100.706436,1197.993652,-11.028026,"LATERAL"
274,17,18,6.902,5750.12,-0.407135,0.420867,-0.538337,0.606058,-0.93579,0.29827,-0.06299,5746.88,-0.36813,-0.635819,0.23582,-0.636084,-0.6728,0.683,-0.09942,2.25,2.49,2.33,3.13,3.22,3,2.51,3.87,3.31,3.79,4.12,4.09,4.04,3.83,3.69,3409,14.204167,62286.904167,1.284998,981.870178,-210.249496,1.89703238981685,2.34132862540187,2.26789250752879,17.082949,817.454651,156.568344,100.712845,1197.962402,-11.07294,"LATERAL"
275,17,18,6.949,5750.14,-0.407429,0.420548,-0.53848,0.605954,-0.93234,0.29984,-0.06283,5746.9,-0.361015,-0.641139,0.230697,-0.636701,-0.71898,0.71324,-0.09917,2.25,2.49,2.33,3.14,3.22,3,2.52,3.87,3.31,3.79,4.13,4.09,4.03,3.84,3.69,3420,14.25,62286.95,1.284998,981.870178,-210.249496,1.89829134785347,2.34116640776877,2.26727941221297,17.175911,817.49115,156.646683,100.891655,1197.512573,-11.599927,"LATERAL"
276,17,18,6.954,5750.16,-0.407774,0.420219,-0.538602,0.605842,-0.93405,0.30741,-0.06691,5746.92,-0.354643,-0.645382,0.22454,-0.638194,-0.70133,0.76203,-0.08597,2.25,2.49,2.33,3.14,3.22,3.01,2.52,3.86,3.31,3.79,4.12,4.09,4.03,3.84,3.69,3421,14.254167,62286.954167,1.284998,981.870178,-210.249496,1.89839069243105,2.34112770130067,2.26725722750096,17.186272,817.498413,156.653,100.906425,1197.4729,-11.63382,"LATERAL"
277,17,18,6.976,5750.18,-0.408093,0.419871,-0.538687,0.605793,-0.93691,0.31677,-0.06963,5746.94,-0.350118,-0.648499,0.219053,-0.639439,-0.58112,0.76702,-0.07649,2.25,2.5,2.33,3.14,3.22,3,2.52,3.87,3.31,3.79,4.12,4.09,4.02,3.84,3.69,3427,14.279167,62286.979167,1.284998,981.870178,-210.249496,1.89888761477539,2.340905571912,2.26717498070499,17.238012,817.504333,156.724808,100.970123,1197.24646,-11.816502,"LATERAL"
278,17,18,6.981,5750.2,-0.408185,0.419631,-0.538745,0.605845,-0.93037,0.31834,-0.07347,5746.96,-0.345835,-0.651867,0.212658,-0.640503,-0.7229,0.70511,-0.06086,2.25,2.5,2.32,3.14,3.22,3.01,2.52,3.87,3.3,3.79,4.12,4.08,4.01,3.84,3.69,3428,14.283333,62286.983333,1.284998,981.870178,-210.249496,1.89897122112206,2.34088099227198,2.26714811047672,17.24337,817.508911,156.736435,100.979332,1197.208008,-11.853277,"LATERAL"
279,17,18,7.016,5750.22,-0.408352,0.419408,-0.53873,0.605901,-0.92925,0.31083,-0.07014,5746.98,-0.340944,-0.65534,0.20548,-0.641923,-0.74667,0.66609,-0.04632,2.25,2.5,2.32,3.14,3.22,3.01,2.53,3.87,3.3,3.79,4.12,4.08,4.01,3.85,3.69,3436,14.316667,62287.016667,1.284998,981.870178,-210.249496,1.89985704573534,2.34091795119624,2.26656063838149,17.312267,817.527405,156.761749,101.112015,1196.943359,-12.243918,"LATERAL"
280,17,18,7.021,5750.24,-0.408482,0.41923,-0.538616,0.606038,-0.92794,0.30812,-0.07486,5747,-0.336295,-0.659084,0.19767,-0.642993,-0.72829,0.66431,-0.02262,2.24,2.51,2.32,3.14,3.22,3.01,2.53,3.87,3.3,3.8,4.12,4.07,4,3.85,3.69,3438,14.325,62287.025,1.284998,981.870178,-210.249496,1.90011101168566,2.34092448246401,2.26639608360972,17.325104,817.540771,156.753189,101.153831,1196.875,-12.347193,"LATERAL"
281,17,18,7.056,5750.26,-0.408446,0.419197,-0.538406,0.606272,-0.93039,0.30894,-0.07329,5747.02,-0.331699,-0.662964,0.190436,-0.643575,-0.7266,0.70117,-0.00942,2.24,2.51,2.32,3.14,3.22,3.01,2.54,3.87,3.3,3.8,4.12,4.07,3.99,3.85,3.69,3446,14.358333,62287.058333,1.284998,981.870178,-210.249496,1.90071795789542,2.34100891699047,2.26593242962112,17.389738,817.597778,156.693085,101.236305,1196.689819,-12.644689,"LATERAL"
282,17,18,7.061,5750.28,-0.408389,0.419254,-0.538141,0.606506,-0.93377,0.30842,-0.06895,5747.04,-0.325345,-0.667658,0.184318,-0.643747,-0.73186,0.69172,-0.03428,2.24,2.52,2.32,3.14,3.23,3.01,2.55,3.87,3.3,3.8,4.12,4.07,3.99,3.85,3.69,3447,14.3625,62287.0625,1.284998,981.870178,-210.249496,1.90072916363808,2.34102915875426,2.26590488021678,17.399408,817.605225,156.686401,101.231186,1196.67627,-12.667802,"LATERAL"
283,17,18,7.095,5750.3,-0.40834,0.419401,-0.537907,0.606644,-0.9357,0.3042,-0.06993,5747.06,-0.317818,-0.672303,0.179359,-0.644073,-0.75781,0.61581,-0.06676,2.24,2.52,2.32,3.14,3.23,3.01,2.56,3.87,3.3,3.81,4.12,4.06,3.98,3.85,3.69,3455,14.395833,62287.095833,1.284998,981.870178,-210.249496,1.90078260042919,2.34123592561897,2.26566147918765,17.438501,817.645142,156.658264,101.203674,1196.629395,-12.810655,"LATERAL"
284,17,18,7.1,5750.32,-0.408293,0.419389,-0.537753,0.606821,-0.93774,0.30113,-0.06595,5747.08,-0.31016,-0.676164,0.172866,-0.645539,-0.80195,0.5508,-0.06752,2.25,2.52,2.32,3.14,3.23,3.01,2.57,3.87,3.3,3.81,4.12,4.06,3.98,3.86,3.69,3456,14.4,62287.1,1.284998,981.870178,-210.249496,1.9007826348952,2.341280080261,2.26561658889828,17.435019,817.653687,156.651123,101.197037,1196.624878,-12.834422,"LATERAL"
285,17,18,7.135,5750.34,-0.408386,0.419239,-0.537712,0.606898,-0.93815,0.30101,-0.06876,5747.1,-0.303301,-0.679275,0.164419,-0.647735,-0.81531,0.5418,-0.0456,2.25,2.52,2.33,3.14,3.23,3.01,2.58,3.87,3.3,3.81,4.11,4.06,3.97,3.86,3.69,3465,14.4375,62287.1375,1.284998,981.870178,-210.249496,1.90087313895621,2.34153380683576,2.26530231870944,17.423206,817.652222,156.628418,101.096176,1196.407471,-13.160162,"LATERAL"
286,17,18,7.14,5750.36,-0.408548,0.419161,-0.537653,0.606895,-0.93855,0.30601,-0.07075,5747.12,-0.296957,-0.681911,0.155841,-0.650021,-0.80265,0.5723,-0.02679,2.25,2.52,2.33,3.14,3.23,3.01,2.6,3.87,3.29,3.82,4.11,4.05,3.96,3.86,3.69,3466,14.441667,62287.141667,1.284998,981.870178,-210.249496,1.90089566693859,2.34156490303269,2.26525666784938,17.416145,817.655457,156.627121,101.084549,1196.375244,-13.206878,"LATERAL"
287,17,18,7.175,5750.38,-0.408689,0.419033,-0.537632,0.606908,-0.93337,0.30901,-0.07436,5747.14,-0.290275,-0.684465,0.148212,-0.652136,-0.80486,0.60388,-0.0215,2.25,2.52,2.33,3.14,3.23,3.01,2.61,3.87,3.29,3.82,4.11,4.05,3.96,3.86,3.68,3475,14.479167,62287.179167,1.284998,981.870178,-210.249496,1.9008870231541,2.34183027304915,2.26499233785129,17.398012,817.653625,156.675766,100.893356,1196.028198,-13.64183,"LATERAL"
288,17,18,7.181,5750.4,-0.40886,0.418922,-0.537666,0.606839,-0.93032,0.30617,-0.07397,5747.16,-0.283208,-0.68685,0.141135,-0.654302,-0.8267,0.60847,-0.03538,2.26,2.53,2.33,3.14,3.23,3.01,2.63,3.87,3.29,3.82,4.1,4.04,3.96,3.87,3.68,3476,14.483333,62287.183333,1.284998,981.870178,-210.249496,1.90082599568408,2.34187586843678,2.26498404642732,17.394075,817.651672,156.688461,100.851982,1195.987427,-13.690441,"LATERAL"
289,17,18,7.215,5750.42,-0.408986,0.418793,-0.537657,0.606851,-0.92873,0.30404,-0.07704,5747.18,-0.276149,-0.688537,0.133616,-0.657119,-0.86926,0.5783,-0.047,2.26,2.53,2.33,3.14,3.23,3.01,2.64,3.87,3.29,3.82,4.1,4.04,3.96,3.87,3.68,3484,14.516667,62287.216667,1.284998,981.870178,-210.249496,1.90013356223375,2.34226364615788,2.26502123644768,17.365852,817.611328,156.788376,100.455742,1195.652588,-14.067325,"LATERAL"
290,17,18,7.22,5750.44,-0.409046,0.418681,-0.537589,0.606948,-0.93084,0.3038,-0.07378,5747.2,-0.270398,-0.68985,0.124934,-0.659836,-0.78195,0.50598,-0.03343,2.26,2.53,2.33,3.14,3.23,3.01,2.65,3.87,3.28,3.83,4.1,4.03,3.94,3.87,3.68,3485,14.520833,62287.220833,1.284998,981.870178,-210.249496,1.90005529825707,2.34230721283546,2.26502565805079,17.36359,817.599426,156.80072,100.413986,1195.621094,-14.103971,"LATERAL"
