Sample,Hour,Minute,Sec,Stamp,Quat1,Quat2,Quat3,Quat4,AccX,AccY,AccZ,Stamp2,Quat2_1,Quat2_2,Quat2_3,Quat2_4,Acc2_X,Acc2_Y,Acc2_Z,A0,A1,A2,A3,A4,A5,A6,A7,A8,A9,A10,A11,A12,A13,A14,Frame,Time,realTime,BrazoX,BrazoY,BrazoZ,angBrazoX,angBrazoY,angBrazoZ,EspaldaX,EspaldaY,EspaldaZ,refX,refY,refZ,type
2,17,9,35.95,5238.96,0.554842,0.597755,0.295078,0.497764,-0.90819,0.36361,-0.11628,5235.74,0.152005,-0.707012,0.209448,-0.658149,-0.97871,0.05586,0.08477,2.35,2.44,2.53,2.92,2.95,2.98,2.89,3.9,2.98,3.95,4.03,3.78,3.89,3.87,3.67,1876,7.816667,61775.951667,85.792274,942.914185,-203.508881,1.78395386789182,2.42900543133509,2.23778476109116,8.396224,803.473267,161.176239,150.888672,1175.754517,-13.148817,"LATERAL"
3,17,9,35.967,5238.98,0.554884,0.59777,0.295152,0.497655,-0.907,0.36625,-0.11701,5235.76,0.152295,-0.707175,0.209051,-0.658033,-0.98315,0.05153,0.08522,2.35,2.44,2.53,2.92,2.95,2.98,2.89,3.9,2.98,3.94,4.03,3.78,3.89,3.87,3.67,1880,7.833333,61775.968333,85.712029,942.856384,-203.53009,1.78416869738014,2.42901501312456,2.23768357617425,8.38592,803.459839,161.162354,150.888672,1175.754517,-13.148817,"LATERAL"
4,17,9,35.976,5239,0.554878,0.597799,0.295159,0.497622,-0.9089,0.36607,-0.11625,5235.78,0.152317,-0.707135,0.209096,-0.658057,-0.9858,0.04947,0.08381,2.35,2.44,2.52,2.92,2.95,2.98,2.89,3.9,2.98,3.94,4.03,3.78,3.89,3.87,3.67,1882,7.841667,61775.976667,85.665665,942.83313,-203.543045,1.78429787405324,2.4289973498666,2.23764653384596,8.375183,803.453735,161.153458,150.888672,1175.754517,-13.148817,"LATERAL"
5,17,9,35.985,5239.02,0.554839,0.597854,0.295183,0.497585,-0.90674,0.3653,-0.1155,5235.8,0.152261,-0.707105,0.20908,-0.658107,-0.98436,0.05352,0.08262,2.35,2.44,2.53,2.92,2.95,2.98,2.89,3.9,2.98,3.94,4.02,3.78,3.89,3.87,3.67,1884,7.85,61775.985,85.620979,942.802551,-203.549911,1.78442044237068,2.42901072179397,2.23758068555442,8.365944,803.449158,161.15184,150.888672,1175.754517,-13.148817,"LATERAL"
6,17,9,35.994,5239.04,0.554819,0.597897,0.295196,0.497549,-0.90765,0.36572,-0.11694,5235.82,0.152196,-0.70703,0.209054,-0.658211,-0.98296,0.05509,0.08419,2.35,2.44,2.53,2.92,2.96,2.98,2.89,3.9,2.98,3.94,4.03,3.78,3.89,3.87,3.67,1887,7.8625,61775.9975,85.559799,942.756348,-203.562393,1.78458454578965,2.42903103769698,2.23749001987776,8.342355,803.446655,161.153839,150.888672,1175.754517,-13.148817,"LATERAL"
7,17,9,36.002,5239.06,0.554806,0.597983,0.295203,0.497456,-0.90838,0.36923,-0.11375,5235.84,0.152116,-0.706947,0.209012,-0.658332,-0.98179,0.05019,0.08257,2.35,2.44,2.52,2.92,2.95,2.98,2.89,3.9,2.98,3.94,4.03,3.78,3.89,3.87,3.67,1889,7.870833,61776.005833,85.512825,942.728699,-203.56543,1.78471753648612,2.42904520866215,2.23741883834491,8.330894,803.436523,161.158478,150.888672,1175.754517,-13.148817,"LATERAL"
8,17,9,36.009,5239.08,0.554808,0.598042,0.295205,0.497382,-0.90756,0.36945,-0.11576,5235.86,0.152224,-0.706879,0.208882,-0.658421,-0.97979,0.04606,0.0816,2.35,2.44,2.52,2.92,2.96,2.98,2.89,3.9,2.98,3.94,4.03,3.78,3.89,3.87,3.67,1890,7.875,61776.01,85.493698,942.707764,-203.572067,1.78476415708412,2.42905896351771,2.23738493151955,8.32282,803.438599,161.152771,150.888672,1175.754517,-13.148817,"LATERAL"
9,17,9,36.014,5239.1,0.554857,0.598068,0.295216,0.497289,-0.90815,0.36982,-0.11623,5235.88,0.152275,-0.706774,0.208908,-0.658514,-0.98117,0.04686,0.08057,2.36,2.44,2.52,2.92,2.96,2.98,2.89,3.9,2.98,3.94,4.03,3.78,3.89,3.87,3.67,1891,7.879167,61776.014167,85.464516,942.687805,-203.576523,1.78484414446818,2.42906768299478,2.23734189469087,8.321491,803.434082,161.154663,150.888672,1175.754517,-13.148817,"LATERAL"
10,17,9,36.019,5239.12,0.554858,0.598122,0.29524,0.497208,-0.90594,0.36727,-0.11632,5235.9,0.152465,-0.706678,0.208794,-0.658609,-0.98216,0.05172,0.08132,2.35,2.44,2.52,2.92,2.96,2.98,2.89,3.9,2.98,3.94,4.03,3.78,3.89,3.87,3.67,1893,7.8875,61776.0225,85.417465,942.658081,-203.588058,1.78497249719194,2.42906640125331,2.23728835753727,8.309851,803.427307,161.154282,150.888672,1175.754517,-13.148817,"LATERAL"
11,17,9,36.024,5239.14,0.554841,0.598187,0.295269,0.497132,-0.90601,0.3678,-0.11407,5235.92,0.152501,-0.706561,0.20876,-0.658738,-0.98131,0.05047,0.08332,2.35,2.44,2.52,2.92,2.96,2.98,2.89,3.9,2.98,3.94,4.02,3.78,3.89,3.87,3.67,1894,7.891667,61776.026667,85.398712,942.638489,-203.589493,1.78502088674105,2.42908966699122,2.23724398748761,8.303424,803.427734,161.151367,150.888672,1175.754517,-13.148817,"LATERAL"
12,17,9,36.032,5239.16,0.554861,0.598203,0.295293,0.497076,-0.90771,0.36729,-0.11457,5235.94,0.152525,-0.706483,0.20871,-0.658831,-0.98125,0.0494,0.08458,2.36,2.44,2.52,2.92,2.96,2.98,2.89,3.9,2.98,3.94,4.03,3.78,3.89,3.87,3.67,1896,7.9,61776.035,85.349617,942.60437,-203.606186,1.78515107104444,2.42908406654614,2.23719401868832,8.299246,803.417969,161.148895,150.888672,1175.754517,-13.148817,"LATERAL"
13,17,9,36.04,5239.18,0.554867,0.598261,0.295309,0.496991,-0.90768,0.36898,-0.1152,5235.96,0.152509,-0.706495,0.208518,-0.658883,-0.97991,0.05099,0.08452,2.35,2.44,2.52,2.92,2.95,2.98,2.89,3.9,2.98,3.94,4.03,3.78,3.89,3.87,3.67,1898,7.908333,61776.043333,85.305107,942.572021,-203.619904,1.7852689242985,2.42908526569927,2.23714237183764,8.295792,803.399231,161.13649,150.888672,1175.754517,-13.148817,"LATERAL"
14,17,9,36.045,5239.2,0.554836,0.598346,0.295352,0.496897,-0.90914,0.3693,-0.11448,5235.98,0.152452,-0.706484,0.208374,-0.658953,-0.98057,0.05268,0.08301,2.35,2.44,2.52,2.92,2.96,2.98,2.89,3.89,2.98,3.94,4.03,3.78,3.89,3.87,3.67,1899,7.9125,61776.0475,85.282433,942.558655,-203.626923,1.7853305998695,2.42907919429506,2.23712215326363,8.293879,803.400513,161.135208,150.888672,1175.754517,-13.148817,"LATERAL"
15,17,9,36.053,5239.22,0.554858,0.598403,0.295397,0.496776,-0.9074,0.36827,-0.1159,5236,0.152529,-0.706508,0.208133,-0.658986,-0.9808,0.05054,0.08093,2.35,2.44,2.52,2.92,2.96,2.98,2.89,3.9,2.98,3.94,4.03,3.78,3.89,3.87,3.67,1901,7.920833,61776.055833,85.236168,942.522644,-203.640457,1.78545208829124,2.42908715831218,2.23706202023452,8.283316,803.386108,161.129211,150.888672,1175.754517,-13.148817,"LATERAL"
16,17,9,36.061,5239.24,0.554876,0.598451,0.295408,0.496692,-0.90761,0.36938,-0.11647,5236.02,0.152495,-0.706495,0.207996,-0.65905,-0.98118,0.04862,0.08076,2.35,2.44,2.52,2.92,2.96,2.98,2.89,3.9,2.98,3.94,4.03,3.78,3.89,3.87,3.67,1903,7.929167,61776.064167,85.197411,942.485901,-203.648514,1.78555174682795,2.4291153733069,2.23699059420316,8.266664,803.385437,161.123535,150.888672,1175.754517,-13.148817,"LATERAL"
17,17,9,36.066,5239.26,0.554935,0.598515,0.295386,0.496562,-0.90628,0.37062,-0.11541,5236.04,0.152499,-0.706491,0.207909,-0.659081,-0.98202,0.05003,0.08018,2.35,2.44,2.52,2.92,2.96,2.98,2.89,3.9,2.98,3.94,4.03,3.78,3.89,3.87,3.67,1904,7.933333,61776.068333,85.175896,942.47052,-203.652695,1.78560987212642,2.42912106712958,2.23695988401307,8.263433,803.384155,161.122314,150.888672,1175.754517,-13.148817,"LATERAL"
18,17,9,36.104,5239.28,0.554939,0.598578,0.29538,0.496486,-0.90738,0.37106,-0.11272,5236.06,0.152603,-0.706481,0.207777,-0.659109,-0.98518,0.05071,0.07919,2.35,2.44,2.52,2.92,2.96,2.98,2.89,3.9,2.98,3.94,4.02,3.78,3.89,3.87,3.67,1913,7.970833,61776.105833,84.985161,942.352051,-203.70314,1.78612858815321,2.42910238895871,2.23675628614088,8.212159,803.352783,161.096848,150.888672,1175.754517,-13.148817,"LATERAL"
19,17,9,36.11,5239.3,0.554925,0.598619,0.295405,0.496437,-0.90703,0.36762,-0.1136,5236.08,0.152543,-0.70647,0.207647,-0.659176,-0.98561,0.05064,0.07826,2.35,2.44,2.52,2.92,2.96,2.98,2.89,3.9,2.98,3.94,4.03,3.78,3.89,3.87,3.67,1914,7.975,61776.11,84.962128,942.343018,-203.709961,1.78619370178181,2.42908724574344,2.23674372481427,8.205116,803.34436,161.092438,150.888672,1175.754517,-13.148817,"LATERAL"
20,17,9,36.141,5239.32,0.554945,0.598679,0.295379,0.496357,-0.90662,0.36707,-0.11394,5236.1,0.152608,-0.706439,0.207491,-0.659243,-0.9861,0.04893,0.07931,2.35,2.44,2.52,2.92,2.96,2.98,2.89,3.9,2.98,3.94,4.03,3.78,3.89,3.87,3.67,1922,8.008333,61776.143333,84.802422,942.295288,-203.763641,1.78665021093304,2.42893578959308,2.23670155516898,8.160846,803.319397,161.054443,150.888672,1175.754517,-13.148817,"LATERAL"
21,17,9,36.146,5239.34,0.554976,0.59872,0.295382,0.496271,-0.90672,0.36975,-0.11363,5236.12,0.152625,-0.706438,0.207461,-0.659251,-0.98289,0.05064,0.07739,2.36,2.44,2.52,2.92,2.96,2.98,2.89,3.9,2.99,3.94,4.03,3.78,3.89,3.87,3.67,1923,8.0125,61776.1475,84.783043,942.281494,-203.763779,1.78670407949021,2.4289491312512,2.23666476610601,8.154104,803.316772,161.051224,150.888672,1175.754517,-13.148817,"LATERAL"
22,17,9,36.18,5239.36,0.554978,0.59876,0.295375,0.496225,-0.9082,0.36963,-0.11344,5236.14,0.152571,-0.706414,0.207425,-0.6593,-0.98396,0.04844,0.07816,2.36,2.44,2.52,2.92,2.96,2.98,2.89,3.9,2.99,3.94,4.02,3.78,3.89,3.87,3.66,1931,8.045833,61776.180833,84.627136,942.228943,-203.812592,1.78714776562043,2.42882207204181,2.23660285282902,8.106981,803.279175,161.026596,150.888672,1175.754517,-13.148817,"LATERAL"
23,17,9,36.185,5239.38,0.554974,0.598775,0.29539,0.496203,-0.90859,0.36935,-0.11433,5236.16,0.152493,-0.706331,0.207336,-0.659435,-0.98356,0.05493,0.07375,2.36,2.44,2.52,2.92,2.96,2.98,2.89,3.9,2.98,3.94,4.02,3.78,3.89,3.87,3.67,1932,8.05,61776.185,84.612694,942.224854,-203.825195,1.78718571483199,2.42878993750636,2.23661920001483,8.107804,803.275757,161.026062,150.888672,1175.754517,-13.148817,"LATERAL"
24,17,9,36.223,5239.4,0.554959,0.598706,0.295453,0.496266,-0.90726,0.36879,-0.1121,5236.18,0.152432,-0.7063,0.20727,-0.659503,-0.97942,0.04986,0.07492,2.36,2.44,2.52,2.92,2.96,2.98,2.89,3.9,2.98,3.94,4.03,3.78,3.89,3.87,3.67,1942,8.091667,61776.226667,84.508369,942.152344,-203.932098,1.78742959178459,2.42861218793214,2.23669490233228,8.060332,803.266357,160.996872,150.888672,1175.754517,-13.148817,"LATERAL"
25,17,9,36.228,5239.42,0.554976,0.598694,0.295492,0.496237,-0.9073,0.37055,-0.11278,5236.2,0.152661,-0.706213,0.207311,-0.65953,-0.9804,0.04473,0.07814,2.36,2.44,2.52,2.92,2.95,2.98,2.89,3.9,2.98,3.94,4.02,3.78,3.89,3.87,3.67,1943,8.095833,61776.230833,84.499802,942.144104,-203.940353,1.78744860681301,2.42860364870507,2.23669538224811,8.059234,803.258301,160.998413,150.888672,1175.754517,-13.148817,"LATERAL"
26,17,9,36.259,5239.44,0.554954,0.598702,0.295492,0.496252,-0.90449,0.37205,-0.11475,5236.22,0.152737,-0.706177,0.207399,-0.659524,-0.98519,0.04769,0.07732,2.36,2.44,2.52,2.92,2.96,2.98,2.89,3.9,2.99,3.94,4.03,3.78,3.89,3.87,3.67,1950,8.125,61776.26,84.430023,942.117981,-203.988678,1.78763386528002,2.42849103529726,2.23672998593192,8.037103,803.260315,160.975357,150.888672,1175.754517,-13.148817,"LATERAL"
27,17,9,36.282,5239.46,0.554935,0.598874,0.295414,0.496112,-0.907,0.37296,-0.11229,5236.24,0.152682,-0.706195,0.207383,-0.659522,-0.98603,0.04939,0.07825,2.36,2.44,2.52,2.92,2.96,2.98,2.89,3.9,2.98,3.94,4.03,3.78,3.89,3.87,3.67,1956,8.15,61776.285,84.365829,942.106873,-203.993286,1.78782877235,2.42845219589342,2.23668521175223,8.027219,803.25531,160.965515,150.888672,1175.754517,-13.148817,"LATERAL"
28,17,9,36.287,5239.48,0.554942,0.598853,0.295401,0.496138,-0.91021,0.37188,-0.11279,5236.26,0.152874,-0.706139,0.207223,-0.659587,-0.98882,0.04567,0.0754,2.36,2.43,2.51,2.92,2.95,2.98,2.89,3.9,2.99,3.94,4.03,3.78,3.89,3.87,3.66,1957,8.154167,61776.289167,84.354599,942.105347,-203.994675,1.78786283404834,2.42844316674099,2.23667966292352,8.025877,803.252258,160.962433,150.888672,1175.754517,-13.148817,"LATERAL"
29,17,9,36.321,5239.5,0.554956,0.598873,0.295363,0.496121,-0.90812,0.37106,-0.11253,5236.28,0.152823,-0.706132,0.207162,-0.659626,-0.98443,0.04712,0.07961,2.36,2.43,2.51,2.92,2.95,2.98,2.89,3.9,2.99,3.94,4.03,3.78,3.89,3.87,3.67,1965,8.1875,61776.3225,84.272346,942.119995,-204.010651,1.78812368173353,2.42830890368364,2.23670342426372,8.040907,803.248413,160.964203,150.888672,1175.754517,-13.148817,"LATERAL"
30,17,9,36.326,5239.52,0.55494,0.598837,0.295345,0.496192,-0.90623,0.37076,-0.1114,5236.3,0.152868,-0.706298,0.20688,-0.659526,-0.97991,0.04644,0.08093,2.37,2.42,2.51,2.92,2.94,2.98,2.89,3.9,2.99,3.94,4.03,3.78,3.89,3.87,3.66,1966,8.191667,61776.326667,84.261566,942.122681,-204.015274,1.78815716332237,2.42828383615579,2.23671444476552,8.044953,803.247498,160.965057,150.888672,1175.754517,-13.148817,"LATERAL"
31,17,9,36.361,5239.54,0.554934,0.598794,0.295355,0.496245,-0.90622,0.37116,-0.11305,5236.32,0.15283,-0.70629,0.206916,-0.659532,-0.97736,0.04703,0.07921,2.37,2.42,2.5,2.92,2.93,2.98,2.89,3.9,2.99,3.94,4.02,3.78,3.89,3.86,3.67,1975,8.229167,61776.364167,84.164101,942.078064,-203.962585,1.78846432969867,2.42842138381053,2.23644109070027,8.014842,803.22644,160.998825,150.888672,1175.754517,-13.148817,"LATERAL"
32,17,9,36.366,5239.56,0.554949,0.598878,0.295278,0.496173,-0.90574,0.37273,-0.11033,5236.34,0.15275,-0.706276,0.206935,-0.65956,-0.97951,0.04571,0.07748,2.37,2.42,2.5,2.92,2.93,2.98,2.89,3.9,2.98,3.95,4.03,3.78,3.89,3.87,3.66,1976,8.233333,61776.368333,84.157227,942.074219,-203.960724,1.78848479324416,2.42842827093627,2.23642519123867,8.009763,803.219543,161.008087,150.888672,1175.754517,-13.148817,"LATERAL"
33,17,9,36.402,5239.58,0.554902,0.598849,0.295307,0.496243,-0.90606,0.37282,-0.1129,5236.36,0.152942,-0.70618,0.206864,-0.65964,-0.98284,0.04618,0.07612,2.37,2.41,2.5,2.92,2.93,2.98,2.89,3.9,2.99,3.94,4.03,3.78,3.89,3.87,3.67,1985,8.270833,61776.405833,84.054283,942.043884,-203.90358,1.78881892741435,2.42854126527629,2.23616490489381,7.974123,803.197388,161.034897,150.888672,1175.754517,-13.148817,"LATERAL"
34,17,9,36.408,5239.6,0.55489,0.598812,0.295326,0.49629,-0.90513,0.37198,-0.11321,5236.38,0.152917,-0.706127,0.206887,-0.659696,-0.9826,0.04654,0.07884,2.37,2.41,2.5,2.92,2.93,2.98,2.89,3.9,2.99,3.94,4.02,3.78,3.89,3.87,3.67,1986,8.275,61776.41,84.041885,942.036987,-203.887344,1.78886154808416,2.428583338042,2.23610350768061,7.964172,803.198303,161.043488,150.888672,1175.754517,-13.148817,"LATERAL"
35,17,9,36.44,5239.62,0.554866,0.598786,0.295374,0.49632,-0.90498,0.37052,-0.11543,5236.4,0.152988,-0.706161,0.206748,-0.659686,-0.98331,0.04834,0.08041,2.37,2.41,2.5,2.92,2.93,2.98,2.89,3.9,2.99,3.94,4.03,3.78,3.89,3.87,3.67,1994,8.308333,61776.443333,83.963432,941.993896,-203.778702,1.78913415980024,2.42886196940643,2.2357009811786,7.924204,803.16217,161.092667,150.888672,1175.754517,-13.148817,"LATERAL"
36,17,9,36.462,5239.64,0.55483,0.598769,0.295407,0.496361,-0.90679,0.37081,-0.11579,5236.42,0.152945,-0.706173,0.206709,-0.659696,-0.98129,0.04789,0.07832,2.37,2.41,2.5,2.92,2.93,2.98,2.89,3.9,2.99,3.94,4.03,3.78,3.9,3.87,3.66,1999,8.329167,61776.464167,83.917122,941.971191,-203.743927,1.78928355316365,2.42895278410143,2.23554336133451,7.910746,803.123474,161.091782,150.888672,1175.754517,-13.148817,"LATERAL"
37,17,9,36.467,5239.66,0.554792,0.598804,0.295391,0.496371,-0.90609,0.37172,-0.11229,5236.44,0.152886,-0.706205,0.206672,-0.659687,-0.98099,0.04696,0.07839,2.37,2.41,2.5,2.92,2.93,2.98,2.89,3.89,2.99,3.94,4.03,3.78,3.89,3.87,3.67,2000,8.333333,61776.468333,83.911407,941.969543,-203.735611,1.78930440035886,2.4289708447575,2.23551587206589,7.904953,803.121643,161.094238,150.888672,1175.754517,-13.148817,"LATERAL"
38,17,9,36.5,5239.68,0.554731,0.598792,0.295419,0.496436,-0.90529,0.37149,-0.11236,5236.46,0.152965,-0.706227,0.206666,-0.659647,-0.9827,0.04968,0.0779,2.37,2.41,2.5,2.92,2.93,2.98,2.89,3.9,2.99,3.94,4.03,3.78,3.89,3.87,3.67,2008,8.366667,61776.501667,83.843452,941.903076,-203.651016,1.78952044379738,2.42925170571853,2.2351354510165,7.850131,803.086365,161.124985,150.888672,1175.754517,-13.148817,"LATERAL"
39,17,9,36.522,5239.7,0.55463,0.598817,0.295448,0.496503,-0.9058,0.36907,-0.1125,5236.48,0.152983,-0.706252,0.206671,-0.659615,-0.97967,0.0494,0.07809,2.37,2.41,2.5,2.92,2.93,2.98,2.89,3.9,2.99,3.94,4.02,3.78,3.89,3.87,3.67,2013,8.3875,61776.5225,83.803764,941.847473,-203.60112,1.78963767242406,2.4294523055219,2.23487984970776,7.842383,803.058228,161.127762,150.888672,1175.754517,-13.148817,"LATERAL"
40,17,9,36.527,5239.72,0.554593,0.598784,0.295505,0.496549,-0.90688,0.36884,-0.11194,5236.5,0.15297,-0.706255,0.2067,-0.659605,-0.98064,0.05188,0.07844,2.37,2.41,2.5,2.92,2.93,2.98,2.89,3.9,2.99,3.94,4.03,3.78,3.89,3.87,3.67,2015,8.395833,61776.530833,83.791641,941.832153,-203.585739,1.78967444426024,2.42951037194205,2.23480461421784,7.836999,803.046265,161.124817,150.888672,1175.754517,-13.148817,"LATERAL"
41,17,9,36.562,5239.74,0.554517,0.598815,0.295533,0.496579,-0.90641,0.36888,-0.11114,5236.52,0.152905,-0.706291,0.206682,-0.659587,-0.98462,0.04987,0.0784,2.37,2.41,2.5,2.92,2.93,2.98,2.89,3.9,2.99,3.94,4.03,3.78,3.89,3.87,3.67,2023,8.429167,61776.564167,83.701157,941.781738,-203.510818,1.78996602006305,2.42971634116742,2.23446726233799,7.827865,803.025208,161.131866,150.888672,1175.754517,-13.148817,"LATERAL"
42,17,9,36.567,5239.76,0.554409,0.598887,0.29555,0.496603,-0.90752,0.37104,-0.10985,5236.54,0.152783,-0.706331,0.206612,-0.659595,-0.98628,0.0475,0.0806,2.37,2.42,2.5,2.92,2.93,2.98,2.89,3.89,2.99,3.94,4.02,3.78,3.89,3.87,3.67,2024,8.433333,61776.568333,83.686104,941.77655,-203.497498,1.79001664946336,2.42974580603848,2.2344150849676,7.819147,803.026489,161.136597,150.888672,1175.754517,-13.148817,"LATERAL"
43,17,9,36.599,5239.78,0.554328,0.598894,0.29556,0.496679,-0.90716,0.3712,-0.11067,5236.56,0.152672,-0.706457,0.20648,-0.659527,-0.98687,0.04987,0.08022,2.37,2.41,2.5,2.92,2.93,2.98,2.89,3.9,2.99,3.94,4.02,3.78,3.89,3.87,3.67,2032,8.466667,61776.601667,83.600525,941.780823,-203.429443,1.7903195362529,2.42982414437252,2.2342026457353,7.818817,803.021973,161.129669,150.888672,1175.754517,-13.148817,"LATERAL"
44,17,9,36.622,5239.8,0.554293,0.598929,0.295522,0.4967,-0.90724,0.37048,-0.10992,5236.58,0.152568,-0.706537,0.206435,-0.65948,-0.98631,0.05207,0.07863,2.37,2.41,2.5,2.92,2.93,2.98,2.89,3.89,2.99,3.94,4.02,3.78,3.89,3.87,3.67,2037,8.4875,61776.6225,83.564217,941.797363,-203.396851,1.79045776631485,2.42983480481368,2.23413120806306,7.825055,803.010315,161.14122,150.888672,1175.754517,-13.148817,"LATERAL"
45,17,9,36.627,5239.82,0.554253,0.598892,0.295538,0.496779,-0.90831,0.37228,-0.10856,5236.6,0.152438,-0.706648,0.206364,-0.659412,-0.9834,0.0516,0.07758,2.37,2.41,2.5,2.92,2.93,2.98,2.89,3.9,2.99,3.94,4.03,3.78,3.89,3.87,3.67,2039,8.495833,61776.630833,83.555031,941.803284,-203.383011,1.79049618200239,2.4298467522962,2.23410218873132,7.821767,803.009949,161.142838,150.888672,1175.754517,-13.148817,"LATERAL"
46,17,9,36.661,5239.84,0.554231,0.598839,0.295569,0.496848,-0.90902,0.37249,-0.1118,5236.62,0.152289,-0.706717,0.206351,-0.659377,-0.98015,0.05144,0.079,2.37,2.42,2.5,2.92,2.93,2.98,2.89,3.9,2.99,3.94,4.02,3.78,3.89,3.87,3.67,2047,8.529167,61776.664167,83.483398,941.829956,-203.364334,1.79074538327052,2.42977490145851,2.23406612660877,7.831868,802.992981,161.144302,150.888672,1175.754517,-13.148817,"LATERAL"
47,17,9,36.666,5239.86,0.554171,0.598888,0.295605,0.496835,-0.90789,0.37034,-0.11047,5236.64,0.152107,-0.706782,0.206332,-0.659356,-0.98172,0.05057,0.08017,2.37,2.42,2.5,2.92,2.93,2.98,2.89,3.9,2.99,3.94,4.02,3.78,3.89,3.87,3.66,2048,8.533333,61776.668333,83.475349,941.834229,-203.356674,1.79077656370875,2.42977697265521,2.23405032986534,7.829485,802.992371,161.145721,150.888672,1175.754517,-13.148817,"LATERAL"
48,17,9,36.701,5239.88,0.554127,0.598846,0.295627,0.496923,-0.90529,0.37163,-0.11007,5236.66,0.151905,-0.706844,0.206313,-0.659341,-0.9826,0.05155,0.08017,2.37,2.42,2.5,2.92,2.93,2.98,2.89,3.9,2.99,3.94,4.02,3.78,3.89,3.87,3.66,2056,8.566667,61776.701667,83.414032,941.863586,-203.331558,1.79099755548864,2.42972268763956,2.23400862446617,7.84313,802.983215,161.150528,150.888672,1175.754517,-13.148817,"LATERAL"
49,17,9,36.706,5239.9,0.554056,0.59887,0.295664,0.49695,-0.90608,0.37036,-0.11021,5236.68,0.151693,-0.706914,0.206289,-0.659323,-0.98512,0.05031,0.08025,2.37,2.42,2.5,2.92,2.93,2.98,2.89,3.89,2.99,3.94,4.02,3.79,3.89,3.87,3.66,2058,8.575,61776.71,83.405647,941.876709,-203.329666,1.79103208796067,2.42969243399874,2.23402429482399,7.849051,802.981262,161.144608,150.888672,1175.754517,-13.148817,"LATERAL"
50,17,9,36.74,5239.92,0.554013,0.598822,0.295682,0.497045,-0.90686,0.36921,-0.11089,5236.7,0.151549,-0.707002,0.206255,-0.659272,-0.98471,0.04984,0.07924,2.37,2.42,2.5,2.92,2.93,2.98,2.89,3.9,2.99,3.94,4.03,3.78,3.89,3.87,3.66,2066,8.608333,61776.743333,83.386848,941.965515,-203.360229,1.79112657222719,2.42941858094005,2.23426195817455,7.864524,802.971436,161.130707,150.888672,1175.754517,-13.148817,"LATERAL"
51,17,9,36.745,5239.94,0.553971,0.598778,0.295712,0.497127,-0.90759,0.37066,-0.11009,5236.72,0.151385,-0.707086,0.206317,-0.659201,-0.98458,0.04871,0.07729,2.37,2.42,2.5,2.92,2.93,2.98,2.89,3.89,2.99,3.94,4.02,3.78,3.89,3.87,3.66,2067,8.6125,61776.7475,83.385658,941.977539,-203.362534,1.79113590257301,2.42938684084861,2.23429021470059,7.86498,802.968994,161.124069,150.888672,1175.754517,-13.148817,"LATERAL"
52,17,9,36.782,5239.96,0.553942,0.59882,0.29569,0.497123,-0.90758,0.37197,-0.11035,5236.74,0.151269,-0.707132,0.206383,-0.659157,-0.98352,0.0475,0.07858,2.38,2.42,2.5,2.92,2.93,2.98,2.89,3.9,2.99,3.94,4.03,3.78,3.89,3.87,3.66,2076,8.65,61776.785,83.396896,942.062439,-203.369705,1.79114379324069,2.42919980959022,2.23447741269168,7.857742,802.953064,161.10994,150.888672,1175.754517,-13.148817,"LATERAL"
53,17,9,36.787,5239.98,0.553933,0.59876,0.295696,0.497201,-0.90778,0.37068,-0.11227,5236.76,0.151383,-0.707144,0.206325,-0.659137,-0.98253,0.04691,0.07868,2.38,2.42,2.5,2.92,2.93,2.98,2.89,3.9,2.99,3.94,4.02,3.78,3.89,3.87,3.66,2077,8.654167,61776.789167,83.399971,942.065491,-203.359985,1.79114009431013,2.42921832075432,2.23446016786203,7.84992,802.956909,161.099915,150.888672,1175.754517,-13.148817,"LATERAL"
54,17,9,36.82,5240,0.553924,0.598722,0.295681,0.497266,-0.9071,0.36827,-0.1108,5236.78,0.151337,-0.707134,0.206384,-0.65914,-0.97977,0.04825,0.07814,2.38,2.42,2.5,2.92,2.93,2.98,2.89,3.9,2.99,3.94,4.02,3.78,3.89,3.87,3.66,2085,8.6875,61776.8225,83.416206,942.09259,-203.336365,1.7911142152373,2.42922882320606,2.23446083532881,7.826818,802.937622,161.101578,150.888672,1175.754517,-13.148817,"LATERAL"
55,17,9,36.84,5240.02,0.553909,0.598662,0.295717,0.497334,-0.9071,0.36931,-0.11309,5236.8,0.151517,-0.707065,0.206402,-0.659167,-0.98026,0.05024,0.07922,2.38,2.42,2.5,2.92,2.94,2.98,2.89,3.9,2.99,3.94,4.03,3.78,3.89,3.87,3.66,2090,8.708333,61776.843333,83.428535,942.105347,-203.331039,1.79108462911698,2.42922422410373,2.23447852521412,7.820807,802.922424,161.111084,150.888672,1175.754517,-13.148817,"LATERAL"
56,17,9,36.845,5240.04,0.553893,0.598615,0.295745,0.49739,-0.90555,0.37167,-0.11379,5236.82,0.151535,-0.707021,0.206504,-0.659177,-0.98206,0.04667,0.07889,2.38,2.42,2.5,2.92,2.94,2.98,2.89,3.9,2.99,3.94,4.02,3.78,3.89,3.87,3.66,2091,8.7125,61776.8475,83.430916,942.105652,-203.329315,1.79107804083824,2.42922951273127,2.2344760289063,7.82224,802.915039,161.105438,150.888672,1175.754517,-13.148817,"LATERAL"
57,17,9,36.881,5240.06,0.553898,0.598586,0.295748,0.497418,-0.90574,0.36963,-0.11243,5236.84,0.15159,-0.70696,0.20661,-0.659196,-0.98315,0.0493,0.08123,2.38,2.42,2.5,2.92,2.94,2.98,2.89,3.9,2.99,3.94,4.03,3.78,3.89,3.87,3.66,2100,8.75,61776.885,83.453651,942.1073,-203.277588,1.79103018686521,2.42936418175594,2.23435977076722,7.812324,802.90332,161.134735,150.888672,1175.754517,-13.148817,"LATERAL"
58,17,9,36.886,5240.08,0.553863,0.598538,0.295778,0.497497,-0.90526,0.37118,-0.111,5236.86,0.151637,-0.706951,0.206552,-0.659213,-0.98305,0.05036,0.08137,2.38,2.42,2.5,2.92,2.94,2.98,2.89,3.9,2.99,3.94,4.02,3.78,3.89,3.87,3.66,2101,8.754167,61776.889167,83.45089,942.110962,-203.273529,1.791042738597,2.42936354597121,2.23435490425879,7.810277,802.907043,161.137024,150.888672,1175.754517,-13.148817,"LATERAL"
59,17,9,36.922,5240.1,0.553877,0.59869,0.295682,0.497356,-0.90592,0.37179,-0.11129,5236.88,0.151647,-0.70689,0.206644,-0.659248,-0.98272,0.04808,0.0816,2.38,2.42,2.5,2.92,2.94,2.98,2.89,3.9,2.99,3.94,4.02,3.78,3.89,3.86,3.66,2109,8.7875,61776.9225,83.439812,942.124634,-203.243866,1.79109852047235,2.42939407059068,2.23429927441906,7.80542,802.88916,161.153748,150.888672,1175.754517,-13.148817,"LATERAL"
60,17,9,36.929,5240.12,0.553858,0.598647,0.295707,0.497414,-0.907,0.37301,-0.11082,5236.9,0.151776,-0.706923,0.206612,-0.659193,-0.98015,0.04689,0.08369,2.38,2.42,2.5,2.92,2.94,2.98,2.89,3.9,2.99,3.95,4.02,3.78,3.89,3.87,3.66,2111,8.795833,61776.930833,83.434586,942.123291,-203.233398,1.79111898287292,2.42941682166756,2.2342670874626,7.801874,802.879028,161.161957,150.888672,1175.754517,-13.148817,"LATERAL"
61,17,9,36.959,5240.14,0.553825,0.5986,0.295762,0.497475,-0.90754,0.37172,-0.10826,5236.92,0.151716,-0.706915,0.206637,-0.659207,-0.98111,0.04956,0.08189,2.38,2.42,2.5,2.92,2.94,2.98,2.89,3.9,2.99,3.94,4.03,3.78,3.89,3.87,3.66,2118,8.825,61776.96,83.379189,942.099243,-203.153366,1.79131668562454,2.42960724619903,2.2339860114672,7.761864,802.854126,161.198227,150.888672,1175.754517,-13.148817,"LATERAL"
62,17,9,36.982,5240.16,0.553827,0.598584,0.295756,0.497495,-0.90806,0.36926,-0.11311,5236.94,0.151566,-0.70694,0.206554,-0.659241,-0.97928,0.05282,0.07955,2.38,2.42,2.5,2.92,2.94,2.98,2.89,3.9,2.99,3.94,4.02,3.78,3.89,3.87,3.65,2124,8.85,61776.985,83.363754,942.055237,-203.119705,1.79135633374525,2.42976551761237,2.23380719786572,7.753808,802.839783,161.208008,150.888672,1175.754517,-13.148817,"LATERAL"
63,17,9,36.987,5240.18,0.553773,0.598568,0.295822,0.497535,-0.90595,0.36989,-0.11047,5236.96,0.151493,-0.707048,0.206381,-0.659196,-0.97637,0.04886,0.08203,2.38,2.42,2.5,2.92,2.94,2.98,2.89,3.9,2.99,3.94,4.03,3.78,3.89,3.87,3.65,2125,8.854167,61776.989167,83.36335,942.050903,-203.121918,1.79135423776765,2.42976924267727,2.23380432221494,7.75036,802.832764,161.212616,150.888672,1175.754517,-13.148817,"LATERAL"
64,17,9,37.021,5240.2,0.553836,0.598568,0.295817,0.497469,-0.90526,0.37162,-0.11222,5236.98,0.151568,-0.707041,0.206484,-0.659154,-0.98038,0.04696,0.08187,2.38,2.42,2.5,2.92,2.94,2.98,2.89,3.9,2.99,3.94,4.02,3.78,3.89,3.86,3.65,2133,8.8875,61777.0225,83.308556,941.983948,-203.094421,1.79150290440639,2.42992943551321,2.23357553872852,7.734222,802.843506,161.226608,150.888672,1175.754517,-13.148817,"LATERAL"
65,17,9,37.027,5240.22,0.553791,0.598549,0.295862,0.497514,-0.90477,0.36965,-0.11082,5237,0.15169,-0.707015,0.206563,-0.659129,-0.98314,0.05225,0.0805,2.38,2.42,2.5,2.92,2.94,2.98,2.89,3.9,2.99,3.94,4.02,3.78,3.89,3.87,3.65,2135,8.895833,61777.030833,83.299789,941.977478,-203.086136,1.79153075915511,2.42995506202095,2.23353714047766,7.730878,802.846619,161.228134,150.888672,1175.754517,-13.148817,"LATERAL"
66,17,9,37.061,5240.24,0.553764,0.598505,0.295887,0.497582,-0.90806,0.3713,-0.1089,5237.02,0.151663,-0.707089,0.206536,-0.659064,-0.98579,0.05007,0.08088,2.38,2.42,2.5,2.92,2.94,2.98,2.89,3.9,2.99,3.94,4.02,3.78,3.89,3.86,3.65,2143,8.929167,61777.064167,83.275856,941.942627,-203.04306,1.79160648231253,2.43010865414075,2.23334716433315,7.729752,802.840332,161.227188,150.888672,1175.754517,-13.148817,"LATERAL"
67,17,9,37.066,5240.26,0.553747,0.598534,0.295837,0.497596,-0.91124,0.37209,-0.10957,5237.04,0.151648,-0.707132,0.206503,-0.659033,-0.98655,0.04858,0.07949,2.38,2.42,2.5,2.92,2.94,2.98,2.89,3.89,2.99,3.94,4.02,3.78,3.89,3.87,3.65,2144,8.933333,61777.068333,83.269485,941.940125,-203.043091,1.79162522701571,2.43010863133319,2.23333892762006,7.736301,802.832153,161.219086,150.888672,1175.754517,-13.148817,"LATERAL"
68,17,9,37.114,5240.28,0.553693,0.5985,0.295826,0.497703,-0.9088,0.37132,-0.10979,5237.06,0.151863,-0.707087,0.206434,-0.659053,-0.98352,0.05169,0.08018,2.38,2.42,2.5,2.92,2.94,2.98,2.89,3.9,2.99,3.94,4.02,3.78,3.89,3.87,3.65,2155,8.979167,61777.114167,83.201363,941.930786,-203.028595,1.79184186667906,2.43010579430563,2.23324630710487,7.71035,802.834961,161.230286,150.888672,1175.754517,-13.148817,"LATERAL"
69,17,9,37.119,5240.3,0.553622,0.598522,0.295827,0.497755,-0.90761,0.36884,-0.10992,5237.08,0.151878,-0.707097,0.206469,-0.659028,-0.98249,0.05244,0.08119,2.38,2.42,2.5,2.92,2.94,2.98,2.89,3.89,2.99,3.94,4.02,3.78,3.89,3.87,3.65,2157,8.9875,61777.1225,83.199753,941.934753,-203.028473,1.79184919652526,2.43009635949521,2.23325269520067,7.71388,802.826294,161.227875,150.888672,1175.754517,-13.148817,"LATERAL"
70,17,9,37.141,5240.32,0.553595,0.598482,0.295855,0.497817,-0.90754,0.37031,-0.1104,5237.1,0.151955,-0.707072,0.206522,-0.65902,-0.98338,0.05028,0.08086,2.38,2.41,2.5,2.92,2.94,2.98,2.89,3.89,2.99,3.94,4.03,3.78,3.89,3.87,3.65,2162,9.008333,61777.143333,83.178566,941.932556,-203.017822,1.79191971253535,2.43010816248678,2.23320954839882,7.719718,802.813721,161.22966,150.888672,1175.754517,-13.148817,"LATERAL"
71,17,9,37.146,5240.34,0.553556,0.598453,0.29589,0.497875,-0.90632,0.37029,-0.10936,5237.12,0.151909,-0.707035,0.206595,-0.659047,-0.98301,0.05101,0.08172,2.38,2.41,2.5,2.92,2.94,2.98,2.89,3.9,2.99,3.94,4.03,3.78,3.89,3.87,3.65,2163,9.0125,61777.1475,83.171814,941.935425,-203.014359,1.79194418438068,2.43010453222027,2.2332024516761,7.712361,802.812378,161.230637,150.888672,1175.754517,-13.148817,"LATERAL"
72,17,9,37.181,5240.36,0.553566,0.598546,0.295817,0.497795,-0.90599,0.36937,-0.10901,5237.14,0.151843,-0.707006,0.206618,-0.659087,-0.98408,0.05068,0.08072,2.38,2.41,2.5,2.92,2.94,2.98,2.89,3.9,2.99,3.94,4.03,3.78,3.89,3.87,3.65,2172,9.05,61777.185,83.092529,941.938599,-202.997238,1.79220416634716,2.43007199970465,2.23312083372605,7.681677,802.808655,161.259216,150.888672,1175.754517,-13.148817,"LATERAL"
73,17,9,37.186,5240.38,0.55353,0.598515,0.295861,0.497846,-0.90719,0.37064,-0.11103,5237.16,0.151925,-0.706978,0.206527,-0.659126,-0.98307,0.04916,0.08062,2.38,2.41,2.5,2.92,2.94,2.98,2.89,3.9,2.99,3.93,4.03,3.78,3.89,3.87,3.65,2173,9.054167,61777.189167,83.082916,941.938782,-202.996216,1.79223510356041,2.43006604216541,2.23311324046576,7.676667,802.807373,161.259964,150.888672,1175.754517,-13.148817,"LATERAL"
74,17,9,37.22,5240.4,0.553515,0.598577,0.295847,0.497796,-0.90562,0.37087,-0.11096,5237.18,0.151877,-0.706954,0.206547,-0.659157,-0.98321,0.04851,0.07999,2.38,2.41,2.5,2.92,2.94,2.98,2.89,3.9,2.99,3.94,4.03,3.78,3.89,3.86,3.65,2181,9.0875,61777.2225,83.043411,941.959839,-203.00325,1.79236841816772,2.42997264750292,2.23314956684706,7.668662,802.77533,161.254562,150.888672,1175.754517,-13.148817,"LATERAL"
75,17,9,37.241,5240.42,0.553502,0.598526,0.2959,0.497841,-0.90669,0.36993,-0.11087,5237.2,0.151945,-0.707098,0.206296,-0.659066,-0.98014,0.04839,0.08006,2.38,2.41,2.5,2.92,2.94,2.98,2.89,3.9,2.99,3.94,4.02,3.78,3.89,3.87,3.65,2186,9.108333,61777.243333,83.027779,941.954712,-202.987595,1.79242200729766,2.43000674982841,2.23309109208284,7.654838,802.75,161.259216,150.888672,1175.754517,-13.148817,"LATERAL"
76,17,9,37.246,5240.44,0.553505,0.598469,0.295958,0.497872,-0.90834,0.36949,-0.1103,5237.22,0.151932,-0.707075,0.206332,-0.659082,-0.98077,0.04848,0.0814,2.38,2.41,2.5,2.92,2.94,2.98,2.89,3.9,2.99,3.94,4.03,3.78,3.89,3.87,3.65,2187,9.1125,61777.2475,83.020561,941.951843,-202.986038,1.79244392881712,2.43001045476677,2.23307761899316,7.65649,802.744385,161.26265,150.888672,1175.754517,-13.148817,"LATERAL"
77,17,9,37.281,5240.46,0.55349,0.598499,0.295946,0.497859,-0.90602,0.36933,-0.10955,5237.24,0.151931,-0.707058,0.206332,-0.6591,-0.97972,0.05055,0.08283,2.38,2.41,2.5,2.92,2.94,2.98,2.89,3.9,2.99,3.94,4.02,3.78,3.89,3.87,3.65,2196,9.15,61777.285,82.930054,941.900635,-202.990036,1.79269977096951,2.43003474919954,2.23293962753109,7.623164,802.723633,161.253418,150.888672,1175.754517,-13.148817,"LATERAL"
78,17,9,37.286,5240.48,0.553455,0.598482,0.29595,0.497916,-0.90602,0.36984,-0.11014,5237.26,0.151887,-0.707129,0.206272,-0.659053,-0.97571,0.05068,0.08133,2.38,2.42,2.5,2.92,2.94,2.98,2.89,3.89,2.99,3.94,4.02,3.78,3.89,3.87,3.65,2197,9.154167,61777.289167,82.920074,941.891785,-202.992432,1.79272532453691,2.43003968202545,2.23292328139663,7.618309,802.7276,161.255768,150.888672,1175.754517,-13.148817,"LATERAL"
79,17,9,37.322,5240.5,0.553496,0.598626,0.29587,0.497745,-0.90632,0.36998,-0.11025,5237.28,0.151844,-0.707159,0.206259,-0.659035,-0.98082,0.04909,0.07922,2.38,2.42,2.5,2.92,2.94,2.98,2.89,3.9,2.99,3.94,4.02,3.78,3.89,3.87,3.65,2205,9.1875,61777.3225,82.863037,941.820129,-202.989136,1.79286729704267,2.43015163110047,2.23274620582914,7.615999,802.699829,161.242096,150.888672,1175.754517,-13.148817,"LATERAL"
80,17,9,37.327,5240.52,0.553483,0.598594,0.295893,0.497784,-0.90754,0.37108,-0.1073,5237.3,0.152176,-0.706959,0.206261,-0.659172,-0.98546,0.04811,0.07816,2.38,2.42,2.5,2.92,2.94,2.97,2.89,3.9,2.99,3.93,4.03,3.78,3.89,3.87,3.65,2207,9.195833,61777.330833,82.854156,941.801514,-202.978302,1.79288990493644,2.43020864551389,2.23267803127137,7.610297,802.698792,161.239212,150.888672,1175.754517,-13.148817,"LATERAL"
81,17,9,37.359,5240.54,0.553445,0.598583,0.2959,0.497836,-0.90798,0.36991,-0.10869,5237.32,0.152171,-0.706952,0.206218,-0.659194,-0.98626,0.04785,0.07881,2.38,2.42,2.5,2.92,2.94,2.98,2.89,3.9,2.99,3.93,4.02,3.78,3.89,3.87,3.64,2214,9.225,61777.36,82.800529,941.754578,-202.961624,1.79304074715106,2.43030196085578,2.2325159704247,7.598135,802.686584,161.256958,150.888672,1175.754517,-13.148817,"LATERAL"
82,17,9,37.381,5240.56,0.553389,0.598713,0.295894,0.497744,-0.90808,0.36865,-0.10857,5237.34,0.152168,-0.706936,0.206169,-0.659227,-0.98383,0.04998,0.08032,2.38,2.42,2.5,2.92,2.94,2.97,2.89,3.89,2.99,3.93,4.02,3.78,3.89,3.87,3.64,2220,9.25,61777.385,82.738403,941.731262,-202.990173,1.79321113786306,2.4302338916538,2.23250981298259,7.602736,802.679199,161.245026,150.888672,1175.754517,-13.148817,"LATERAL"
83,17,9,37.386,5240.58,0.553377,0.598692,0.295916,0.497771,-0.9066,0.37211,-0.10999,5237.36,0.151982,-0.70707,0.206053,-0.659163,-0.98103,0.05174,0.08255,2.38,2.42,2.5,2.92,2.94,2.97,2.89,3.9,3,3.93,4.02,3.78,3.89,3.87,3.65,2221,9.254167,61777.389167,82.731209,941.727539,-202.989258,1.79323219645382,2.43023791060969,2.23249636666148,7.60192,802.676086,161.244217,150.888672,1175.754517,-13.148817,"LATERAL"
84,17,9,37.421,5240.6,0.55338,0.598776,0.295884,0.497685,-0.90592,0.37294,-0.10761,5237.38,0.151933,-0.707074,0.206017,-0.659181,-0.97984,0.05106,0.0805,2.38,2.42,2.51,2.92,2.94,2.98,2.89,3.9,3,3.93,4.02,3.78,3.89,3.87,3.65,2229,9.2875,61777.4225,82.67009,941.664551,-202.976044,1.79339613144678,2.43035082621882,2.23230838429139,7.601084,802.667236,161.254135,150.888672,1175.754517,-13.148817,"LATERAL"
85,17,9,37.426,5240.62,0.553363,0.598738,0.295904,0.497739,-0.90831,0.37109,-0.11023,5237.4,0.151957,-0.707061,0.205925,-0.659219,-0.98228,0.04862,0.07968,2.38,2.42,2.51,2.92,2.94,2.98,2.89,3.89,3,3.93,4.02,3.78,3.89,3.87,3.65,2230,9.291667,61777.426667,82.657326,941.653503,-202.971359,1.79343239500645,2.43037438920754,2.23226823592934,7.596066,802.66626,161.25856,150.888672,1175.754517,-13.148817,"LATERAL"
86,17,9,37.459,5240.64,0.553356,0.5987,0.295937,0.497772,-0.90871,0.36989,-0.10856,5237.42,0.151886,-0.70706,0.205894,-0.659245,-0.98139,0.04951,0.07924,2.38,2.42,2.51,2.92,2.94,2.97,2.89,3.9,3,3.93,4.03,3.78,3.89,3.87,3.65,2238,9.325,61777.46,82.576195,941.589294,-202.999283,1.79364020126685,2.43037829404261,2.23217188553535,7.60119,802.653809,161.250305,150.888672,1175.754517,-13.148817,"LATERAL"
87,17,9,37.481,5240.66,0.553352,0.598833,0.295883,0.497648,-0.90676,0.37108,-0.10978,5237.44,0.151815,-0.707065,0.205853,-0.65927,-0.98233,0.04973,0.08008,2.38,2.42,2.51,2.92,2.94,2.97,2.89,3.89,3,3.93,4.03,3.78,3.89,3.87,3.65,2244,9.35,61777.485,82.534744,941.544128,-203.023773,1.79373485718235,2.43038279506095,2.23212519212585,7.599892,802.648376,161.235214,150.888672,1175.754517,-13.148817,"LATERAL"
88,17,9,37.486,5240.68,0.553363,0.598781,0.2959,0.497689,-0.90683,0.37115,-0.10964,5237.46,0.151929,-0.707007,0.205776,-0.659329,-0.98298,0.04865,0.0791,2.38,2.41,2.5,2.92,2.94,2.97,2.89,3.9,3,3.93,4.03,3.78,3.89,3.87,3.65,2245,9.354167,61777.489167,82.529945,941.542297,-203.026596,1.7937477070407,2.43037616918307,2.23212623552305,7.599608,802.645996,161.22963,150.888672,1175.754517,-13.148817,"LATERAL"
89,17,9,37.52,5240.7,0.553339,0.598811,0.295893,0.497683,-0.907,0.37038,-0.10957,5237.48,0.15192,-0.707001,0.205771,-0.659339,-0.98284,0.04872,0.08001,2.38,2.41,2.5,2.92,2.94,2.97,2.89,3.89,3,3.93,4.02,3.78,3.89,3.87,3.65,2253,9.3875,61777.5225,82.500748,941.464172,-203.019211,1.79379971817611,2.4305338749889,2.2319421870842,7.583474,802.640869,161.223206,150.888672,1175.754517,-13.148817,"LATERAL"
90,17,9,37.542,5240.72,0.553324,0.598768,0.295897,0.49775,-0.90841,0.36991,-0.10843,5237.5,0.152024,-0.707073,0.205578,-0.659298,-0.98104,0.04827,0.08107,2.38,2.41,2.5,2.92,2.94,2.97,2.89,3.89,3,3.93,4.02,3.78,3.89,3.87,3.65,2258,9.408333,61777.543333,82.464882,941.432861,-203.047211,1.79388281343204,2.43050563236076,2.23193401651221,7.577444,802.636414,161.205734,150.888672,1175.754517,-13.148817,"LATERAL"
91,17,9,37.547,5240.74,0.553325,0.598711,0.295907,0.497811,-0.90859,0.37078,-0.10939,5237.52,0.152009,-0.707082,0.20554,-0.659304,-0.98103,0.04604,0.07989,2.38,2.41,2.5,2.92,2.94,2.97,2.89,3.9,2.99,3.93,4.02,3.78,3.89,3.87,3.65,2259,9.4125,61777.5475,82.453415,941.423096,-203.05217,1.79391131010814,2.43050528706873,2.23192168148128,7.581529,802.634644,161.199387,150.888672,1175.754517,-13.148817,"LATERAL"
92,17,9,37.58,5240.76,0.553317,0.59877,0.295853,0.497781,-0.90749,0.3701,-0.10951,5237.54,0.152012,-0.707101,0.205502,-0.659294,-0.98125,0.04747,0.08011,2.38,2.41,2.5,2.92,2.94,2.97,2.89,3.9,3,3.93,4.03,3.78,3.89,3.87,3.65,2267,9.445833,61777.580833,82.403877,941.337891,-203.050476,1.79402088375001,2.43064780183809,2.23172746416185,7.571477,802.639038,161.179581,150.888672,1175.754517,-13.148817,"LATERAL"
93,17,9,37.601,5240.78,0.553284,0.598753,0.295847,0.497841,-0.90758,0.37041,-0.10931,5237.56,0.15221,-0.707098,0.205371,-0.659293,-0.98301,0.04771,0.07949,2.38,2.41,2.5,2.92,2.94,2.97,2.89,3.89,3,3.93,4.03,3.78,3.89,3.87,3.65,2272,9.466667,61777.601667,82.372787,941.292542,-203.037994,1.79409928461412,2.43074636736893,2.23159195290523,7.567138,802.628967,161.172852,150.888672,1175.754517,-13.148817,"LATERAL"
94,17,9,37.607,5240.8,0.553264,0.598866,0.295796,0.497757,-0.90771,0.3708,-0.10836,5237.58,0.152207,-0.707113,0.205308,-0.659297,-0.98392,0.04796,0.08217,2.38,2.41,2.5,2.92,2.94,2.97,2.89,3.89,3,3.93,4.02,3.78,3.89,3.87,3.64,2274,9.475,61777.61,82.36216,941.280212,-203.038696,1.79412560405694,2.43076191697267,2.23156435497251,7.568042,802.624451,161.165237,150.888672,1175.754517,-13.148817,"LATERAL"
95,17,9,37.641,5240.82,0.55325,0.598842,0.295794,0.497804,-0.90728,0.37146,-0.10939,5237.6,0.152224,-0.707139,0.205199,-0.659299,-0.98326,0.04914,0.0821,2.38,2.41,2.5,2.92,2.94,2.97,2.89,3.9,3,3.93,4.03,3.78,3.89,3.87,3.65,2282,9.508333,61777.643333,82.280518,941.229492,-203.056229,1.79434675642687,2.43076057260139,2.23146710475846,7.550803,802.615417,161.164276,150.888672,1175.754517,-13.148817,"LATERAL"
96,17,9,37.646,5240.84,0.553264,0.59878,0.295821,0.497847,-0.90703,0.37191,-0.10833,5237.62,0.152187,-0.70716,0.20516,-0.659298,-0.98267,0.04867,0.08043,2.38,2.41,2.5,2.92,2.94,2.97,2.89,3.9,3,3.93,4.02,3.78,3.89,3.87,3.65,2283,9.5125,61777.6475,82.272469,941.223755,-203.057098,1.79436853178296,2.43076396921664,2.23145392270923,7.547766,802.615356,161.163422,150.888672,1175.754517,-13.148817,"LATERAL"
97,17,9,37.681,5240.86,0.553275,0.598791,0.295803,0.497832,-0.90578,0.37081,-0.1108,5237.64,0.15218,-0.707175,0.205173,-0.659279,-0.98249,0.04632,0.07912,2.38,2.41,2.5,2.92,2.94,2.97,2.89,3.89,3,3.93,4.02,3.78,3.89,3.87,3.65,2292,9.55,61777.685,82.212769,941.141418,-203.051651,1.79451321045751,2.43090037230495,2.23125014048318,7.527403,802.611084,161.156601,150.888672,1175.754517,-13.148817,"LATERAL"
98,17,9,37.687,5240.88,0.553282,0.598743,0.295826,0.497869,-0.9074,0.37146,-0.10842,5237.66,0.152209,-0.7072,0.20506,-0.659281,-0.98071,0.04846,0.08018,2.38,2.41,2.5,2.92,2.94,2.97,2.89,3.89,3,3.93,4.02,3.78,3.89,3.87,3.65,2293,9.554167,61777.689167,82.207649,941.134583,-203.045059,1.79452850287128,2.43092569074045,2.23121747277108,7.528069,802.608398,161.163589,150.888672,1175.754517,-13.148817,"LATERAL"
99,17,9,37.719,5240.9,0.553433,0.59888,0.295643,0.497644,-0.90723,0.3735,-0.10927,5237.68,0.152133,-0.707217,0.204994,-0.6593,-0.98118,0.04832,0.07844,2.37,2.41,2.5,2.92,2.94,2.97,2.89,3.89,3,3.93,4.02,3.78,3.89,3.87,3.65,2301,9.5875,61777.7225,82.157417,941.051453,-203.033127,1.79464576720825,2.43108646620594,2.23100100455248,7.513684,802.599548,161.160858,150.888672,1175.754517,-13.148817,"LATERAL"
100,17,9,37.741,5240.92,0.553423,0.598844,0.295688,0.497673,-0.90754,0.37249,-0.10917,5237.7,0.152226,-0.707226,0.204953,-0.659282,-0.98132,0.04635,0.07783,2.37,2.41,2.5,2.92,2.94,2.97,2.89,3.89,3,3.93,4.02,3.78,3.89,3.87,3.65,2306,9.608333,61777.743333,82.139046,941.011169,-203.042953,1.79467673160368,2.43113338873688,2.23093927678639,7.510473,802.602844,161.152191,150.888672,1175.754517,-13.148817,"LATERAL"
101,17,9,37.746,5240.94,0.55341,0.598802,0.295712,0.497723,-0.90613,0.37165,-0.10985,5237.72,0.152273,-0.707212,0.205034,-0.659261,-0.98171,0.04243,0.08039,2.37,2.4,2.5,2.92,2.94,2.97,2.9,3.89,3,3.93,4.02,3.78,3.89,3.87,3.65,2307,9.6125,61777.7475,82.137741,941.000061,-203.047806,1.79467246085389,2.43114452470156,2.23092981945554,7.508018,802.600464,161.147369,150.888672,1175.754517,-13.148817,"LATERAL"
102,17,9,37.78,5240.96,0.553349,0.598954,0.295709,0.49761,-0.90676,0.37155,-0.10662,5237.74,0.152302,-0.707238,0.205035,-0.659226,-0.98363,0.0489,0.08013,2.37,2.4,2.5,2.92,2.94,2.97,2.89,3.89,3,3.93,4.02,3.78,3.89,3.87,3.65,2315,9.645833,61777.780833,82.118576,940.92334,-203.000702,1.79471126664654,2.4313985158198,2.23065323056283,7.493791,802.584106,161.152237,150.888672,1175.754517,-13.148817,"LATERAL"
103,17,9,37.801,5240.98,0.553367,0.59889,0.295722,0.497659,-0.90766,0.37019,-0.11037,5237.76,0.152265,-0.7073,0.204939,-0.659199,-0.98226,0.05125,0.07887,2.37,2.4,2.5,2.91,2.94,2.97,2.89,3.89,3,3.93,4.03,3.78,3.89,3.87,3.65,2320,9.666667,61777.801667,82.113663,940.865356,-203.000809,1.7946943579746,2.4315162208087,2.23054064451756,7.489199,802.574829,161.148361,150.888672,1175.754517,-13.148817,"LATERAL"
104,17,9,37.809,5241,0.553344,0.598954,0.295698,0.497621,-0.90719,0.37224,-0.10665,5237.78,0.152272,-0.707363,0.204864,-0.659153,-0.97972,0.04731,0.07947,2.37,2.4,2.5,2.91,2.94,2.97,2.89,3.89,3,3.93,4.02,3.78,3.89,3.87,3.65,2322,9.675,61777.81,82.113091,940.84552,-203.006119,1.79468270840958,2.43154526581811,2.23051620463084,7.498399,802.576172,161.150146,150.888672,1175.754517,-13.148817,"LATERAL"
105,17,9,37.842,5241.02,0.553381,0.598866,0.295744,0.497658,-0.90601,0.37116,-0.10876,5237.8,0.152452,-0.707414,0.204867,-0.659055,-0.98303,0.04424,0.08074,2.37,2.4,2.5,2.91,2.94,2.97,2.89,3.89,3,3.93,4.03,3.78,3.89,3.87,3.65,2330,9.708333,61777.843333,82.106766,940.78772,-203.035294,1.79465725882168,2.43159446272584,2.23047736278243,7.50051,802.595154,161.139297,150.888672,1175.754517,-13.148817,"LATERAL"
106,17,9,37.846,5241.04,0.553373,0.598814,0.29575,0.497728,-0.90428,0.37212,-0.10821,5237.82,0.152529,-0.707493,0.204864,-0.658953,-0.98282,0.04893,0.08147,2.37,2.4,2.5,2.91,2.94,2.97,2.89,3.89,3,3.93,4.03,3.78,3.89,3.87,3.65,2331,9.7125,61777.8475,82.108871,940.777466,-203.034805,1.79464514056996,2.43161891469405,2.23045781982898,7.49843,802.598694,161.13855,150.888672,1175.754517,-13.148817,"LATERAL"
107,17,9,37.881,5241.06,0.553348,0.598885,0.295712,0.497692,-0.90913,0.37162,-0.10852,5237.84,0.152502,-0.707585,0.20483,-0.658872,-0.98608,0.04639,0.07966,2.37,2.4,2.5,2.91,2.94,2.97,2.89,3.89,3,3.93,4.02,3.78,3.89,3.87,3.65,2340,9.75,61777.885,82.124062,940.743591,-203.029968,1.79458064040581,2.43171396507833,2.23038962181239,7.510109,802.600769,161.121201,150.888672,1175.754517,-13.148817,"LATERAL"
108,17,9,37.886,5241.08,0.553366,0.598826,0.295724,0.497735,-0.90972,0.37202,-0.10859,5237.86,0.152615,-0.707606,0.204777,-0.658839,-0.98635,0.04698,0.08097,2.37,2.4,2.5,2.91,2.94,2.97,2.89,3.9,3,3.93,4.03,3.79,3.89,3.87,3.65,2341,9.754167,61777.889167,82.122169,940.744446,-203.034546,1.79458501293676,2.43170005322976,2.23040186854527,7.515637,802.602661,161.113098,150.888672,1175.754517,-13.148817,"LATERAL"
109,17,9,37.92,5241.1,0.553358,0.598853,0.29569,0.497734,-0.90731,0.37259,-0.10777,5237.88,0.152587,-0.707646,0.204787,-0.6588,-0.98329,0.04738,0.08139,2.37,2.4,2.5,2.91,2.94,2.97,2.89,3.89,3,3.93,4.03,3.78,3.89,3.87,3.65,2349,9.7875,61777.9225,82.100227,940.733704,-203.061584,1.79463589946194,2.43164214055404,2.2304382422518,7.518989,802.608582,161.099335,150.888672,1175.754517,-13.148817,"LATERAL"
110,17,9,37.941,5241.12,0.553317,0.598812,0.295689,0.497828,-0.90669,0.37048,-0.10835,5237.9,0.1526,-0.707742,0.20469,-0.658724,-0.98066,0.04701,0.08306,2.37,2.4,2.5,2.91,2.94,2.97,2.89,3.89,3,3.93,4.02,3.78,3.89,3.87,3.65,2354,9.808333,61777.943333,82.095428,940.724976,-203.061188,1.79464631445038,2.43165740912697,2.23041800180635,7.513587,802.613586,161.10466,150.888672,1175.754517,-13.148817,"LATERAL"
111,17,9,37.946,5241.14,0.553295,0.598767,0.295691,0.497905,-0.90691,0.37101,-0.10908,5237.92,0.15258,-0.70778,0.204754,-0.658667,-0.98138,0.04576,0.0818,2.37,2.4,2.5,2.91,2.94,2.97,2.89,3.9,3,3.94,4.02,3.78,3.89,3.87,3.65,2355,9.8125,61777.9475,82.10051,940.720276,-203.059555,1.79462844138259,2.43167528723946,2.23040774085006,7.517406,802.60675,161.10173,150.888672,1175.754517,-13.148817,"LATERAL"
112,17,9,37.981,5241.16,0.553258,0.598814,0.295645,0.497917,-0.90766,0.37122,-0.10812,5237.94,0.152511,-0.707792,0.204813,-0.658652,-0.98436,0.0445,0.08112,2.37,2.4,2.5,2.91,2.94,2.97,2.89,3.89,3,3.93,4.02,3.78,3.89,3.87,3.65,2364,9.85,61777.985,82.083664,940.718384,-203.04361,1.79468756886661,2.43170191304038,2.23035413263463,7.51345,802.60199,161.099991,150.888672,1175.754517,-13.148817,"LATERAL"
113,17,9,37.986,5241.18,0.553229,0.598775,0.29566,0.497987,-0.90686,0.37273,-0.11012,5237.96,0.152589,-0.707775,0.204736,-0.658676,-0.98533,0.04408,0.08046,2.37,2.4,2.5,2.91,2.94,2.97,2.9,3.89,3,3.93,4.03,3.78,3.89,3.87,3.65,2365,9.854167,61777.989167,82.077187,940.715515,-203.039597,1.7947081556088,2.43171178036418,2.23033485646605,7.516098,802.603516,161.10231,150.888672,1175.754517,-13.148817,"LATERAL"
114,17,9,38.02,5241.2,0.553284,0.598821,0.295596,0.497909,-0.90566,0.37334,-0.10999,5237.98,0.152553,-0.707747,0.204763,-0.658706,-0.98551,0.04424,0.0824,2.37,2.4,2.5,2.91,2.94,2.97,2.89,3.89,3,3.93,4.03,3.78,3.89,3.87,3.65,2373,9.8875,61778.0225,82.036697,940.745911,-203.013275,1.79486435841457,2.43167464289386,2.23030290564394,7.484735,802.601563,161.11795,150.888672,1175.754517,-13.148817,"LATERAL"
115,17,9,38.041,5241.22,0.553283,0.598763,0.295615,0.497969,-0.90547,0.37242,-0.10997,5238,0.152649,-0.707677,0.204745,-0.658765,-0.98591,0.04749,0.08191,2.37,2.4,2.5,2.91,2.94,2.98,2.89,3.9,3,3.93,4.02,3.78,3.89,3.87,3.65,2378,9.908333,61778.043333,82.034691,940.76355,-202.984711,1.79489338366723,2.43170159285897,2.23026240796857,7.48965,802.583679,161.127121,150.888672,1175.754517,-13.148817,"LATERAL"
116,17,9,38.046,5241.24,0.553288,0.598697,0.295652,0.49802,-0.90583,0.37209,-0.10978,5238.02,0.152594,-0.707672,0.204772,-0.658774,-0.98111,0.04478,0.08144,2.37,2.4,2.5,2.91,2.94,2.97,2.89,3.89,3,3.94,4.03,3.78,3.89,3.87,3.65,2379,9.9125,61778.0475,82.03862,940.771484,-202.978104,1.79488842419058,2.43170338654044,2.23026279605689,7.495955,802.574463,161.127609,150.888672,1175.754517,-13.148817,"LATERAL"
117,17,9,38.082,5241.26,0.553357,0.598746,0.295575,0.49793,-0.90738,0.37301,-0.11056,5238.04,0.152562,-0.707662,0.204812,-0.65878,-0.98354,0.04466,0.08248,2.37,2.4,2.5,2.91,2.94,2.97,2.9,3.9,3,3.93,4.03,3.78,3.89,3.87,3.65,2388,9.95,61778.085,81.986382,940.805237,-202.944611,1.79508676244138,2.43166583268785,2.2302123491314,7.492774,802.55304,161.137177,150.888672,1175.754517,-13.148817,"LATERAL"
118,17,9,38.087,5241.28,0.553309,0.598721,0.295611,0.497992,-0.9048,0.37169,-0.10863,5238.06,0.152759,-0.707899,0.204367,-0.658618,-0.98223,0.04691,0.08381,2.37,2.4,2.5,2.91,2.94,2.97,2.9,3.89,3,3.93,4.03,3.78,3.89,3.87,3.65,2389,9.954167,61778.089167,81.980461,940.811096,-202.94603,1.79510802864313,2.43164529370367,2.2302237926595,7.491195,802.559387,161.145248,150.888672,1175.754517,-13.148817,"LATERAL"
119,17,9,38.121,5241.3,0.553286,0.598811,0.295558,0.497941,-0.90529,0.37202,-0.10885,5238.08,0.152697,-0.707907,0.204381,-0.658619,-0.97848,0.0478,0.08353,2.37,2.4,2.5,2.91,2.94,2.97,2.89,3.89,3,3.93,4.02,3.78,3.89,3.87,3.65,2397,9.9875,61778.1225,81.918465,940.81897,-202.898056,1.79532919622235,2.43168729571875,2.2300818107622,7.479131,802.536621,161.155106,150.888672,1175.754517,-13.148817,"LATERAL"
120,17,9,38.126,5241.32,0.553293,0.598751,0.29564,0.497956,-0.90669,0.37125,-0.10875,5238.1,0.152628,-0.707925,0.204367,-0.658621,-0.9811,0.04689,0.08074,2.37,2.4,2.5,2.91,2.94,2.97,2.89,3.89,3,3.93,4.03,3.78,3.89,3.87,3.65,2398,9.991667,61778.126667,81.911598,940.816101,-202.890274,1.79535271820179,2.43170549512277,2.23005268472535,7.477888,802.540527,161.161972,150.888672,1175.754517,-13.148817,"LATERAL"
121,17,9,38.16,5241.34,0.553288,0.598694,0.295704,0.497992,-0.90731,0.37226,-0.10688,5238.12,0.15252,-0.707903,0.204368,-0.658669,-0.98457,0.04553,0.08217,2.37,2.4,2.5,2.91,2.94,2.97,2.89,3.89,3,3.93,4.03,3.78,3.89,3.87,3.65,2406,10.025,61778.16,81.846779,940.837219,-202.83902,1.79559169874688,2.43172474492505,2.22992582554344,7.494607,802.507935,161.174759,150.888672,1175.754517,-13.148817,"LATERAL"
122,17,9,38.182,5241.36,0.553241,0.598764,0.29569,0.497969,-0.90819,0.37151,-0.10885,5238.14,0.152398,-0.707907,0.204339,-0.658702,-0.98516,0.04583,0.08165,2.37,2.4,2.5,2.91,2.94,2.97,2.89,3.89,3,3.93,4.02,3.78,3.89,3.87,3.65,2412,10.05,61778.185,81.792969,940.867798,-202.817856,1.79578776309732,2.43166400907503,2.22989980107179,7.481313,802.50415,161.193527,150.888672,1175.754517,-13.148817,"LATERAL"
123,17,9,38.187,5241.38,0.553217,0.598766,0.295687,0.497995,-0.90751,0.36989,-0.10838,5238.16,0.152398,-0.707871,0.204324,-0.658745,-0.98214,0.0483,0.08024,2.37,2.4,2.5,2.91,2.94,2.97,2.9,3.89,3,3.93,4.02,3.78,3.89,3.87,3.65,2413,10.054167,61778.189167,81.785652,940.877563,-202.815598,1.79581728819071,2.43164252022266,2.22990847826559,7.475414,802.504456,161.195496,150.888672,1175.754517,-13.148817,"LATERAL"
124,17,9,38.22,5241.4,0.553195,0.598956,0.295601,0.497843,-0.90688,0.37209,-0.1084,5238.18,0.152305,-0.707887,0.204337,-0.658746,-0.9808,0.04792,0.08044,2.37,2.4,2.5,2.91,2.94,2.98,2.9,3.9,3,3.94,4.03,3.78,3.89,3.87,3.65,2421,10.0875,61778.2225,81.75531,940.888489,-202.765335,1.79594167600211,2.43170973123466,2.22978395395636,7.465992,802.490906,161.216599,150.888672,1175.754517,-13.148817,"LATERAL"
125,17,9,38.242,5241.42,0.553166,0.598971,0.295607,0.497853,-0.9067,0.37383,-0.10894,5238.2,0.152282,-0.70789,0.204321,-0.658753,-0.98237,0.04653,0.08088,2.37,2.4,2.5,2.91,2.94,2.97,2.89,3.89,3,3.93,4.03,3.78,3.89,3.87,3.66,2426,10.108333,61778.243333,81.738159,940.887695,-202.745956,1.79600399466772,2.43174160259389,2.22972339316903,7.456591,802.474915,161.235229,150.888672,1175.754517,-13.148817,"LATERAL"
126,17,9,38.247,5241.44,0.553136,0.598987,0.295611,0.497865,-0.90677,0.37137,-0.10849,5238.22,0.152217,-0.707871,0.204364,-0.658775,-0.98071,0.04585,0.07935,2.37,2.4,2.5,2.91,2.94,2.97,2.9,3.89,2.99,3.93,4.02,3.78,3.89,3.87,3.65,2427,10.1125,61778.2475,81.733604,940.888916,-202.749298,1.79601750395586,2.43172752010053,2.22973169820545,7.456685,802.476074,161.232361,150.888672,1175.754517,-13.148817,"LATERAL"
127,17,9,38.28,5241.46,0.553224,0.599021,0.295538,0.497769,-0.90731,0.37122,-0.10906,5238.24,0.152216,-0.707851,0.204411,-0.658782,-0.9819,0.04602,0.07992,2.37,2.4,2.5,2.91,2.94,2.97,2.9,3.89,2.99,3.93,4.02,3.78,3.89,3.87,3.65,2435,10.145833,61778.280833,81.699684,940.87738,-202.727417,1.79612771206936,2.43177366925549,2.22963500470155,7.435645,802.46106,161.249847,150.888672,1175.754517,-13.148817,"LATERAL"
128,17,9,38.285,5241.48,0.553221,0.599021,0.295523,0.497781,-0.90691,0.37129,-0.10924,5238.26,0.152337,-0.707772,0.204409,-0.658839,-0.98336,0.04834,0.08144,2.37,2.4,2.5,2.91,2.94,2.98,2.89,3.89,2.99,3.93,4.03,3.78,3.89,3.87,3.65,2436,10.15,61778.285,81.697845,940.872192,-202.718674,1.79613454969719,2.43180315970592,2.22960181455338,7.42892,802.460754,161.252914,150.888672,1175.754517,-13.148817,"LATERAL"
129,17,9,38.32,5241.5,0.553251,0.599215,0.295402,0.497586,-0.90799,0.37181,-0.10812,5238.28,0.152306,-0.707749,0.204429,-0.658865,-0.98399,0.04846,0.08025,2.37,2.4,2.5,2.91,2.94,2.98,2.9,3.89,3,3.93,4.03,3.78,3.89,3.87,3.66,2445,10.1875,61778.3225,81.699059,940.873413,-202.697159,1.79614116380285,2.43185111621156,2.22954986791393,7.424279,802.435791,161.241684,150.888672,1175.754517,-13.148817,"LATERAL"
130,17,9,38.342,5241.52,0.55324,0.599215,0.2954,0.4976,-0.90778,0.3717,-0.10892,5238.3,0.152177,-0.70781,0.204416,-0.658834,-0.98286,0.04902,0.08153,2.37,2.4,2.5,2.91,2.94,2.97,2.9,3.89,2.99,3.93,4.03,3.78,3.89,3.87,3.65,2450,10.208333,61778.343333,81.683868,940.879883,-202.705841,1.79618867972145,2.43180476246087,2.22957582093046,7.415473,802.429382,161.237732,150.888672,1175.754517,-13.148817,"LATERAL"
131,17,9,38.347,5241.54,0.553237,0.599217,0.295395,0.497605,-0.9071,0.37134,-0.10714,5238.32,0.152142,-0.707806,0.20444,-0.658839,-0.98179,0.04694,0.08247,2.37,2.4,2.51,2.91,2.94,2.98,2.89,3.89,2.99,3.93,4.03,3.78,3.89,3.87,3.65,2451,10.2125,61778.3475,81.683258,940.885315,-202.710205,1.79619167250997,2.43178277699135,2.22959692465302,7.420894,802.428345,161.235565,150.888672,1175.754517,-13.148817,"LATERAL"
132,17,9,38.38,5241.56,0.553318,0.599481,0.29519,0.497318,-0.90714,0.37001,-0.108,5238.34,0.152106,-0.707785,0.204464,-0.658861,-0.98216,0.04782,0.08175,2.37,2.4,2.51,2.91,2.94,2.98,2.89,3.89,2.99,3.93,4.02,3.78,3.89,3.87,3.66,2459,10.245833,61778.380833,81.659958,940.877502,-202.710312,1.79626057508872,2.43177939851768,2.22956936205889,7.402743,802.429932,161.227554,150.888672,1175.754517,-13.148817,"LATERAL"
133,17,9,38.402,5241.58,0.553296,0.599495,0.295163,0.497341,-0.9088,0.37008,-0.10606,5238.36,0.152245,-0.707692,0.204472,-0.658927,-0.98153,0.04726,0.08058,2.37,2.4,2.51,2.91,2.94,2.97,2.9,3.89,3,3.93,4.02,3.78,3.89,3.87,3.66,2465,10.270833,61778.405833,81.658379,940.870728,-202.713333,1.79626036973737,2.43178537700193,2.2295633494617,7.399409,802.409729,161.210876,150.888672,1175.754517,-13.148817,"LATERAL"
134,17,9,38.407,5241.6,0.553233,0.599656,0.295085,0.497264,-0.90794,0.37231,-0.10878,5238.38,0.152197,-0.70768,0.204485,-0.658947,-0.98249,0.04736,0.0813,2.37,2.4,2.51,2.91,2.94,2.97,2.9,3.89,3,3.93,4.03,3.78,3.89,3.87,3.65,2466,10.275,61778.41,81.657593,940.869934,-202.711426,1.79626326221092,2.43179077490066,2.22955653520102,7.391709,802.41095,161.207077,150.888672,1175.754517,-13.148817,"LATERAL"
135,17,9,38.441,5241.62,0.553226,0.599675,0.295043,0.497273,-0.90679,0.37087,-0.10692,5238.4,0.152184,-0.707716,0.20442,-0.658932,-0.98253,0.04703,0.07996,2.37,2.4,2.51,2.91,2.94,2.98,2.89,3.9,2.99,3.93,4.03,3.78,3.89,3.87,3.65,2474,10.308333,61778.443333,81.631775,940.869934,-202.737747,1.79633258456634,2.43170852934856,2.22960931111206,7.381556,802.400146,161.204575,150.888672,1175.754517,-13.148817,"LATERAL"
136,17,9,38.446,5241.64,0.553227,0.599691,0.295011,0.497272,-0.90648,0.37149,-0.10671,5238.42,0.152186,-0.707685,0.204465,-0.658951,-0.98376,0.04719,0.08036,2.37,2.4,2.51,2.91,2.94,2.98,2.89,3.89,2.99,3.93,4.03,3.78,3.89,3.87,3.65,2475,10.3125,61778.4475,81.62986,940.869019,-202.745911,1.79633439458083,2.43169006645792,2.22962734977858,7.38491,802.399353,161.208389,150.888672,1175.754517,-13.148817,"LATERAL"
137,17,9,38.482,5241.66,0.553233,0.599816,0.294917,0.49717,-0.90679,0.37092,-0.1074,5238.44,0.152146,-0.707672,0.204515,-0.658958,-0.98321,0.04689,0.08214,2.37,2.4,2.51,2.91,2.94,2.97,2.89,3.9,2.99,3.93,4.03,3.78,3.89,3.87,3.66,2484,10.35,61778.485,81.618202,940.861816,-202.749771,1.79636528501286,2.43168654995167,2.22961703033609,7.371276,802.386414,161.201187,150.888672,1175.754517,-13.148817,"LATERAL"
138,17,9,38.488,5241.68,0.553226,0.599837,0.294873,0.497178,-0.90695,0.37151,-0.108,5238.46,0.152289,-0.70768,0.2044,-0.658952,-0.98143,0.04501,0.0809,2.37,2.4,2.51,2.91,2.94,2.98,2.9,3.89,3,3.94,4.03,3.78,3.89,3.87,3.65,2485,10.354167,61778.489167,81.612503,940.864868,-202.747421,1.79638600095044,2.43168074314497,2.22961363039236,7.373544,802.386292,161.199295,150.888672,1175.754517,-13.148817,"LATERAL"
139,17,9,38.522,5241.7,0.553261,0.600067,0.294712,0.496957,-0.90773,0.37251,-0.10857,5238.48,0.152254,-0.707689,0.204415,-0.658945,-0.98178,0.04524,0.08173,2.37,2.4,2.51,2.91,2.94,2.98,2.89,3.9,2.99,3.93,4.02,3.78,3.89,3.87,3.65,2493,10.3875,61778.5225,81.560303,940.835327,-202.746445,1.7965340999496,2.43170126900217,2.22952594632462,7.353108,802.38147,161.193008,150.888672,1175.754517,-13.148817,"LATERAL"
140,17,9,38.527,5241.72,0.553272,0.60007,0.294682,0.496959,-0.90691,0.37322,-0.10733,5238.5,0.152284,-0.707684,0.204384,-0.658954,-0.98115,0.0474,0.08215,2.37,2.4,2.51,2.91,2.94,2.98,2.89,3.9,2.99,3.93,4.02,3.78,3.89,3.87,3.65,2495,10.395833,61778.530833,81.546661,940.832886,-202.754456,1.79657201596803,2.43167651128638,2.22953414006958,7.352491,802.385864,161.196243,150.888672,1175.754517,-13.148817,"LATERAL"
141,17,9,38.562,5241.74,0.553305,0.60006,0.294684,0.496934,-0.90665,0.37237,-0.10875,5238.52,0.152251,-0.707706,0.204362,-0.658945,-0.98132,0.04775,0.08146,2.37,2.4,2.51,2.91,2.94,2.98,2.89,3.89,3,3.93,4.02,3.78,3.89,3.87,3.66,2503,10.429167,61778.564167,81.506264,940.788574,-202.752869,1.7966749078288,2.43173941022943,2.22942351590176,7.349681,802.362305,161.187332,150.888672,1175.754517,-13.148817,"LATERAL"
142,17,9,38.567,5241.76,0.553141,0.60033,0.294641,0.496816,-0.90791,0.37078,-0.10737,5238.54,0.152222,-0.707737,0.204357,-0.65892,-0.98078,0.04635,0.0821,2.37,2.4,2.51,2.91,2.94,2.98,2.9,3.89,3,3.93,4.02,3.78,3.89,3.87,3.65,2504,10.433333,61778.568333,81.504814,940.784119,-202.752106,1.79667730938404,2.43174931652377,2.22941231598916,7.344083,802.366943,161.185898,150.888672,1175.754517,-13.148817,"LATERAL"
143,17,9,38.599,5241.78,0.553157,0.600329,0.294624,0.496809,-0.9067,0.37109,-0.10791,5238.56,0.152433,-0.707771,0.20421,-0.65888,-0.98165,0.04595,0.08095,2.37,2.4,2.51,2.91,2.94,2.98,2.9,3.9,3,3.94,4.02,3.78,3.89,3.87,3.66,2512,10.466667,61778.601667,81.468491,940.729858,-202.755081,1.79675968494178,2.43182604445541,2.22929679894374,7.330025,802.353149,161.180557,150.888672,1175.754517,-13.148817,"LATERAL"
144,17,9,38.622,5241.8,0.553048,0.600608,0.294554,0.496634,-0.90616,0.37146,-0.10566,5238.58,0.152437,-0.707807,0.204202,-0.658842,-0.98192,0.04649,0.07987,2.37,2.4,2.51,2.91,2.94,2.98,2.89,3.9,3,3.93,4.03,3.78,3.89,3.87,3.66,2517,10.4875,61778.6225,81.431725,940.694031,-202.768768,1.79684893702214,2.43183897911636,2.22924331446961,7.330578,802.349365,161.179016,150.888672,1175.754517,-13.148817,"LATERAL"
145,17,9,38.627,5241.82,0.553066,0.600621,0.294545,0.496604,-0.90674,0.37214,-0.10807,5238.6,0.15242,-0.707874,0.204059,-0.658819,-0.98078,0.04799,0.07999,2.37,2.4,2.51,2.91,2.94,2.98,2.9,3.89,3,3.93,4.03,3.78,3.89,3.87,3.66,2519,10.495833,61778.630833,81.426155,940.672424,-202.769821,1.79685381184519,2.43187730281168,2.22920197325986,7.323896,802.346252,161.174637,150.888672,1175.754517,-13.148817,"LATERAL"
146,17,9,38.661,5241.84,0.553072,0.600652,0.294529,0.49657,-0.90681,0.37177,-0.10571,5238.62,0.152413,-0.707887,0.204042,-0.658812,-0.98007,0.04316,0.07982,2.37,2.4,2.51,2.91,2.94,2.98,2.89,3.89,3,3.93,4.03,3.78,3.89,3.87,3.66,2527,10.529167,61778.664167,81.425758,940.575073,-202.759369,1.79680500955727,2.43210563028937,2.22899079637724,7.302189,802.346619,161.152802,150.888672,1175.754517,-13.148817,"LATERAL"
147,17,9,38.666,5241.86,0.553099,0.600699,0.294482,0.496511,-0.90677,0.37143,-0.10746,5238.64,0.152481,-0.707912,0.20407,-0.658761,-0.97843,0.04239,0.08165,2.37,2.4,2.51,2.91,2.94,2.98,2.89,3.9,2.99,3.93,4.03,3.78,3.89,3.87,3.66,2528,10.533333,61778.668333,81.426147,940.562866,-202.755295,1.79679876511948,2.43214097394111,2.22895751537885,7.305809,802.346069,161.157959,150.888672,1175.754517,-13.148817,"LATERAL"
148,17,9,38.7,5241.88,0.553074,0.600742,0.294437,0.496513,-0.90766,0.37409,-0.10733,5238.66,0.152611,-0.707937,0.204029,-0.658716,-0.98054,0.04302,0.08036,2.37,2.4,2.51,2.91,2.94,2.98,2.89,3.89,2.99,3.94,4.02,3.78,3.89,3.87,3.66,2536,10.566667,61778.701667,81.376816,940.424744,-202.711456,1.7968959704373,2.43249032438828,2.22855679553393,7.275941,802.33136,161.137421,150.888672,1175.754517,-13.148817,"LATERAL"
149,17,9,38.72,5241.9,0.553019,0.6008,0.294382,0.496536,-0.90826,0.372,-0.10765,5238.68,0.15254,-0.708026,0.203894,-0.658678,-0.97967,0.04395,0.07975,2.37,2.4,2.51,2.91,2.94,2.97,2.89,3.89,3,3.93,4.03,3.78,3.89,3.87,3.66,2541,10.5875,61778.7225,81.373062,940.313965,-202.669464,1.79686443499571,2.43281622919433,2.22823811936084,7.265234,802.3172,161.127197,150.888672,1175.754517,-13.148817,"LATERAL"
150,17,9,38.726,5241.92,0.552978,0.600841,0.294307,0.496577,-0.90826,0.37066,-0.10793,5238.7,0.152713,-0.708151,0.203587,-0.6586,-0.97897,0.04054,0.08029,2.37,2.4,2.51,2.91,2.94,2.97,2.9,3.89,3,3.93,4.02,3.78,3.89,3.87,3.66,2542,10.591667,61778.726667,81.37133,940.288269,-202.654709,1.79686209672705,2.43290260532491,2.22815093692829,7.261518,802.319092,161.126053,150.888672,1175.754517,-13.148817,"LATERAL"
151,17,9,38.76,5241.94,0.552998,0.600843,0.294243,0.49659,-0.9067,0.37195,-0.10571,5238.72,0.152857,-0.70814,0.203613,-0.65857,-0.97895,0.03578,0.08116,2.37,2.4,2.51,2.91,2.94,2.98,2.89,3.89,2.99,3.93,4.03,3.78,3.89,3.87,3.65,2550,10.625,61778.76,81.376419,940.041748,-202.51889,1.79676880248665,2.43373607148041,2.22734155606675,7.213925,802.323364,161.085846,150.888672,1175.754517,-13.148817,"LATERAL"
152,17,9,38.782,5241.96,0.552934,0.600888,0.294163,0.496654,-0.90329,0.37115,-0.10754,5238.74,0.15301,-0.708117,0.203594,-0.658565,-0.97686,0.03582,0.08311,2.37,2.4,2.51,2.91,2.94,2.98,2.9,3.9,3,3.93,4.02,3.78,3.89,3.87,3.66,2556,10.65,61778.785,81.333603,939.806152,-202.357819,1.79684340327397,2.43456368346465,2.22646216069536,7.15122,802.318481,161.058456,150.888672,1175.754517,-13.148817,"LATERAL"
153,17,9,38.789,5241.98,0.552901,0.600909,0.294043,0.496737,-0.90587,0.37333,-0.10653,5238.76,0.153178,-0.70812,0.203333,-0.658604,-0.97661,0.03401,0.08069,2.37,2.4,2.51,2.91,2.94,2.98,2.9,3.89,3,3.94,4.03,3.78,3.89,3.87,3.66,2557,10.654167,61778.789167,81.316925,939.753418,-202.319595,1.79688332879327,2.43474784154744,2.22625590774594,7.144287,802.314209,161.047287,150.888672,1175.754517,-13.148817,"LATERAL"
154,17,9,38.819,5242,0.552876,0.600941,0.293888,0.496819,-0.90878,0.37061,-0.10922,5238.78,0.153215,-0.707997,0.20307,-0.658808,-0.971,0.02977,0.08139,2.38,2.4,2.51,2.91,2.94,2.98,2.9,3.9,3,3.94,4.03,3.78,3.89,3.87,3.66,2565,10.6875,61778.8225,81.157082,939.22937,-201.957642,1.79725271911057,2.43653988057114,2.22425676789916,7.048697,802.312378,160.973282,150.888672,1175.754517,-13.148817,"LATERAL"
155,17,9,38.841,5242.02,0.552867,0.600975,0.293762,0.496861,-0.91007,0.37132,-0.10742,5238.8,0.153188,-0.707881,0.202646,-0.659069,-0.95912,0.035,0.08491,2.37,2.4,2.51,2.91,2.94,2.98,2.89,3.89,2.99,3.94,4.03,3.78,3.89,3.87,3.66,2570,10.708333,61778.843333,80.992279,938.748718,-201.639969,1.79764089885444,2.43813208948184,2.22245216507719,6.959599,802.281128,160.905884,150.888672,1175.754517,-13.148817,"LATERAL"
156,17,9,38.846,5242.04,0.552857,0.601025,0.293674,0.496864,-0.9058,0.3697,-0.11072,5238.82,0.153113,-0.707786,0.202252,-0.65931,-0.95928,0.03209,0.08521,2.37,2.4,2.51,2.91,2.94,2.98,2.89,3.89,3,3.93,4.03,3.78,3.89,3.87,3.66,2571,10.7125,61778.8475,80.972221,938.654175,-201.571915,1.79768087295029,2.43846828259551,2.22209006158858,6.933467,802.273315,160.895523,150.888672,1175.754517,-13.148817,"LATERAL"
157,17,9,38.88,5242.06,0.552781,0.601125,0.293617,0.496861,-0.9077,0.36956,-0.10817,5238.84,0.153134,-0.707711,0.201883,-0.659498,-0.97189,0.02832,0.07577,2.37,2.4,2.51,2.91,2.94,2.97,2.9,3.89,3,3.93,4.03,3.78,3.89,3.87,3.66,2579,10.745833,61778.880833,80.754036,937.834229,-200.994232,1.79815878540516,2.44131298836189,2.21896093003514,6.750309,802.189941,160.910141,150.888672,1175.754517,-13.148817,"LATERAL"
158,17,9,38.885,5242.08,0.552688,0.601258,0.293614,0.496806,-0.91033,0.37191,-0.108,5238.86,0.153435,-0.70767,0.201479,-0.659596,-0.98912,0.03092,0.07363,2.37,2.4,2.51,2.91,2.94,2.98,2.9,3.89,3,3.94,4.03,3.78,3.89,3.87,3.66,2580,10.75,61778.885,80.737434,937.739502,-200.920837,1.79818983823427,2.44166384626242,2.21858751002687,6.730273,802.184509,160.910309,150.888672,1175.754517,-13.148817,"LATERAL"
159,17,9,38.921,5242.1,0.552512,0.601443,0.293692,0.496731,-0.90393,0.36855,-0.10831,5238.88,0.153967,-0.7077,0.201225,-0.659517,-1.0038,0.03945,0.07697,2.37,2.4,2.51,2.91,2.94,2.98,2.9,3.9,3,3.93,4.03,3.78,3.89,3.87,3.66,2589,10.7875,61778.9225,80.651047,937.113098,-200.379852,1.79834589196915,2.44413010191852,2.21599007789919,6.593062,802.134583,160.909378,150.888672,1175.754517,-13.148817,"LATERAL"
160,17,9,38.926,5242.12,0.552243,0.601665,0.293692,0.496761,-0.8973,0.37284,-0.1104,5238.9,0.154623,-0.707826,0.200988,-0.659302,-1.00626,0.04844,0.08515,2.37,2.4,2.51,2.91,2.94,2.98,2.89,3.9,3,3.94,4.03,3.78,3.89,3.87,3.66,2590,10.791667,61778.926667,80.639008,937.072083,-200.325546,1.79838446410971,2.44432946598247,2.21576815905756,6.579951,802.129578,160.913818,150.888672,1175.754517,-13.148817,"LATERAL"
161,17,9,38.962,5242.14,0.552011,0.60189,0.293633,0.496782,-0.90266,0.37687,-0.10493,5238.92,0.155148,-0.708002,0.200701,-0.659076,-1.00199,0.05076,0.09018,2.37,2.4,2.51,2.91,2.94,2.98,2.9,3.89,3,3.94,4.02,3.78,3.89,3.87,3.66,2599,10.829167,61778.964167,80.412277,936.783325,-199.877808,1.79912911847851,2.44576008878721,2.21396046579463,6.477464,802.110352,160.93306,150.888672,1175.754517,-13.148817,"LATERAL"
162,17,9,38.968,5242.16,0.551937,0.602016,0.293582,0.496741,-0.90928,0.37327,-0.10362,5238.94,0.155492,-0.708186,0.200554,-0.658843,-0.99315,0.0509,0.09124,2.37,2.4,2.51,2.91,2.94,2.98,2.9,3.89,2.99,3.93,4.03,3.78,3.89,3.87,3.66,2600,10.833333,61778.968333,80.376915,936.765625,-199.834839,1.79924883872499,2.44586483520335,2.21379805857585,6.47132,802.107422,160.935577,150.888672,1175.754517,-13.148817,"LATERAL"
163,17,9,39.001,5242.18,0.551936,0.602037,0.293506,0.496763,-0.91171,0.37694,-0.10186,5238.96,0.155471,-0.708491,0.200395,-0.658567,-0.98776,0.0511,0.09256,2.37,2.4,2.51,2.91,2.94,2.98,2.89,3.89,3,3.94,4.02,3.78,3.89,3.87,3.66,2608,10.866667,61779.001667,80.035439,936.666504,-199.546967,1.80038915209228,2.44643428736157,2.21268851663332,6.406657,802.016724,160.950027,150.888672,1175.754517,-13.148817,"LATERAL"
164,17,9,39.009,5242.2,0.551848,0.602138,0.293451,0.49677,-0.90913,0.37678,-0.10155,5238.98,0.155278,-0.708788,0.200206,-0.658351,-0.98493,0.05443,0.09068,2.37,2.4,2.51,2.91,2.94,2.98,2.89,3.89,2.99,3.93,4.03,3.78,3.89,3.87,3.66,2610,10.875,61779.01,79.939987,936.648499,-199.48735,1.80070411028783,2.44652505538026,2.21244975741431,6.387608,801.995728,160.965164,150.888672,1175.754517,-13.148817,"LATERAL"
165,17,9,39.04,5242.22,0.551704,0.602189,0.29333,0.496939,-0.90728,0.37291,-0.1021,5239,0.154927,-0.709055,0.200109,-0.658176,-0.98024,0.05029,0.08547,2.37,2.4,2.51,2.91,2.94,2.98,2.9,3.89,2.99,3.94,4.02,3.78,3.89,3.87,3.66,2618,10.908333,61779.043333,79.570251,936.610046,-199.306168,1.80191972176397,2.44669626187221,2.21171003688412,6.338132,801.902283,161.060928,150.888672,1175.754517,-13.148817,"LATERAL"
166,17,9,39.063,5242.24,0.551498,0.602305,0.293281,0.497056,-0.9028,0.36972,-0.10329,5239.02,0.154572,-0.709317,0.200099,-0.65798,-0.98335,0.0403,0.08029,2.38,2.4,2.51,2.91,2.94,2.97,2.9,3.89,3,3.93,4.03,3.78,3.89,3.87,3.66,2623,10.929167,61779.064167,79.351952,936.599915,-199.203217,1.8026428892307,2.44676124812372,2.2113063573834,6.315227,801.865173,161.133362,150.888672,1175.754517,-13.148817,"LATERAL"
167,17,9,39.068,5242.26,0.551322,0.602446,0.293213,0.497121,-0.90048,0.37109,-0.10287,5239.04,0.154291,-0.709535,0.200144,-0.657797,-0.9875,0.03465,0.07659,2.37,2.4,2.51,2.91,2.94,2.98,2.89,3.89,3,3.93,4.03,3.78,3.89,3.87,3.66,2624,10.933333,61779.068333,79.30928,936.594055,-199.178604,1.80278402397736,2.44679218241508,2.21120871474925,6.314105,801.85022,161.147324,150.888672,1175.754517,-13.148817,"LATERAL"
168,17,9,39.101,5242.28,0.551182,0.602558,0.293178,0.49716,-0.90138,0.37781,-0.10502,5239.06,0.154169,-0.709724,0.200082,-0.657641,-0.98837,0.02945,0.07467,2.37,2.41,2.51,2.91,2.94,2.98,2.89,3.89,3,3.94,4.03,3.78,3.89,3.87,3.66,2632,10.966667,61779.101667,79.032257,936.544617,-198.936508,1.80373100386287,2.4472052067818,2.2103414804479,6.273545,801.808533,161.251358,150.888672,1175.754517,-13.148817,"LATERAL"
169,17,9,39.106,5242.3,0.551052,0.602706,0.293162,0.497135,-0.90771,0.37892,-0.10357,5239.08,0.154043,-0.709972,0.199911,-0.657455,-0.98732,0.03078,0.07446,2.38,2.41,2.51,2.91,2.94,2.98,2.9,3.9,3,3.94,4.03,3.78,3.89,3.87,3.66,2634,10.975,61779.11,78.97139,936.537842,-198.876144,1.80394475180347,2.4473038808071,2.21013985243445,6.260793,801.805786,161.269119,150.888672,1175.754517,-13.148817,"LATERAL"
170,17,9,39.14,5242.32,0.550962,0.602766,0.293214,0.497131,-0.91,0.37603,-0.10277,5239.1,0.154117,-0.710176,0.199699,-0.65728,-0.98192,0.03163,0.07642,2.38,2.41,2.51,2.91,2.94,2.98,2.9,3.89,3,3.94,4.02,3.78,3.89,3.87,3.66,2642,11.008333,61779.143333,78.800926,936.445435,-198.615677,1.80454195563709,2.44794123533075,2.20920443526474,6.228775,801.770935,161.354248,150.888672,1175.754517,-13.148817,"LATERAL"
171,17,9,39.163,5242.34,0.55092,0.602786,0.293296,0.497105,-0.90993,0.37266,-0.10461,5239.12,0.154192,-0.710422,0.199511,-0.657055,-0.98214,0.03568,0.07675,2.38,2.41,2.51,2.91,2.94,2.98,2.89,3.9,3,3.93,4.02,3.78,3.89,3.87,3.66,2647,11.029167,61779.164167,78.730576,936.380188,-198.490128,1.80478068647362,2.44830134591263,2.20872199421979,6.225986,801.735596,161.381714,150.888672,1175.754517,-13.148817,"LATERAL"
172,17,9,39.168,5242.36,0.55097,0.602736,0.293354,0.497076,-0.90887,0.3708,-0.10385,5239.14,0.154325,-0.710633,0.199314,-0.656855,-0.98322,0.04122,0.08044,2.38,2.41,2.51,2.91,2.94,2.98,2.89,3.89,3,3.94,4.02,3.78,3.89,3.87,3.66,2648,11.033333,61779.168333,78.719765,936.370239,-198.471909,1.8048169258684,2.44835403906,2.20865076813565,6.234685,801.729004,161.385483,150.888672,1175.754517,-13.148817,"LATERAL"
173,17,9,39.201,5242.38,0.550944,0.602756,0.293368,0.497073,-0.9086,0.37019,-0.10243,5239.16,0.154464,-0.710772,0.199198,-0.656707,-0.98671,0.04314,0.08229,2.37,2.41,2.51,2.91,2.94,2.97,2.89,3.9,3,3.94,4.03,3.78,3.89,3.87,3.66,2656,11.066667,61779.201667,78.681023,936.324646,-198.345581,1.80496877055391,2.44870384102087,2.20821970409701,6.255054,801.700562,161.393753,150.888672,1175.754517,-13.148817,"LATERAL"
174,17,9,39.207,5242.4,0.55053,0.603179,0.293478,0.496954,-0.907,0.37106,-0.09996,5239.18,0.154578,-0.710924,0.19908,-0.656551,-0.99013,0.04431,0.0839,2.37,2.41,2.51,2.91,2.94,2.98,2.9,3.89,3,3.93,4.03,3.78,3.89,3.87,3.66,2658,11.075,61779.21,78.673241,936.332703,-198.322632,1.80500831900087,2.44873317808511,2.20817089112336,6.258321,801.698547,161.395691,150.888672,1175.754517,-13.148817,"LATERAL"
175,17,9,39.24,5242.42,0.550501,0.603207,0.293448,0.49697,-0.90799,0.3689,-0.10036,5239.2,0.154481,-0.710947,0.199232,-0.656503,-0.99064,0.04761,0.0855,2.38,2.41,2.51,2.91,2.94,2.98,2.89,3.89,2.99,3.94,4.03,3.78,3.89,3.87,3.66,2666,11.108333,61779.243333,78.649902,936.449219,-198.347519,1.80513867771761,2.44841563418468,2.20843565865589,6.280367,801.686584,161.369659,150.888672,1175.754517,-13.148817,"LATERAL"
176,17,9,39.262,5242.44,0.550473,0.603243,0.293435,0.496964,-0.91,0.36989,-0.09828,5239.22,0.154376,-0.711001,0.199272,-0.656457,-0.99015,0.05001,0.08576,2.38,2.41,2.51,2.91,2.94,2.98,2.89,3.9,2.99,3.94,4.03,3.78,3.89,3.87,3.66,2671,11.129167,61779.264167,78.662041,936.570618,-198.415833,1.80514115672691,2.44801975235132,2.20884126945335,6.297199,801.700623,161.342941,150.888672,1175.754517,-13.148817,"LATERAL"
177,17,9,39.267,5242.46,0.550274,0.603412,0.293501,0.49694,-0.91061,0.37115,-0.0995,5239.24,0.154177,-0.711002,0.199416,-0.65646,-0.9864,0.04606,0.08515,2.38,2.41,2.51,2.91,2.94,2.98,2.9,3.89,3,3.94,4.03,3.78,3.89,3.87,3.66,2672,11.133333,61779.268333,78.674538,936.594482,-198.430069,1.80510965174955,2.4479491316713,2.20892870110746,6.308984,801.701355,161.335129,150.888672,1175.754517,-13.148817,"LATERAL"
178,17,9,39.299,5242.48,0.550278,0.603414,0.293493,0.496939,-0.90944,0.37074,-0.0998,5239.26,0.154031,-0.71089,0.1997,-0.656528,-0.98655,0.04145,0.08083,2.38,2.41,2.51,2.91,2.94,2.98,2.9,3.89,2.99,3.93,4.03,3.78,3.89,3.87,3.66,2680,11.166667,61779.301667,78.765152,936.815796,-198.603455,1.80487745505558,2.44717583131512,2.20983264078394,6.345465,801.726013,161.311783,150.888672,1175.754517,-13.148817,"LATERAL"
179,17,9,39.321,5242.5,0.550243,0.603427,0.29346,0.49698,-0.91005,0.37081,-0.10362,5239.28,0.15377,-0.710872,0.199886,-0.656552,-0.98457,0.03732,0.08123,2.38,2.41,2.51,2.91,2.94,2.98,2.89,3.89,2.99,3.94,4.03,3.78,3.89,3.87,3.66,2685,11.1875,61779.3225,78.855682,936.979248,-198.773987,1.80461246620896,2.44652753222355,2.21062327784151,6.377751,801.726563,161.287216,150.888672,1175.754517,-13.148817,"LATERAL"
180,17,9,39.326,5242.52,0.550223,0.603447,0.293403,0.497011,-0.91007,0.37272,-0.10088,5239.3,0.153627,-0.710956,0.199961,-0.656472,-0.98493,0.03289,0.08986,2.37,2.41,2.51,2.91,2.94,2.98,2.89,3.89,3,3.94,4.03,3.78,3.89,3.87,3.66,2686,11.191667,61779.326667,78.873138,937.00708,-198.805359,1.80455986995649,2.44641354438348,2.21076508112872,6.391686,801.724365,161.280334,150.888672,1175.754517,-13.148817,"LATERAL"
181,17,9,39.361,5242.54,0.550215,0.603442,0.293361,0.497051,-0.90925,0.37434,-0.10059,5239.32,0.153573,-0.710959,0.200254,-0.656392,-0.98155,0.0332,0.09094,2.37,2.41,2.51,2.91,2.94,2.98,2.89,3.9,3,3.94,4.03,3.78,3.89,3.87,3.66,2695,11.229167,61779.364167,78.963493,937.327209,-198.97966,1.80438548554208,2.44543265990654,2.21185418277652,6.437922,801.736145,161.233276,150.888672,1175.754517,-13.148817,"LATERAL"
182,17,9,39.366,5242.56,0.550221,0.603459,0.293331,0.497042,-0.90663,0.37191,-0.10107,5239.34,0.153568,-0.711074,0.20081,-0.656099,-0.97902,0.0436,0.1017,2.38,2.41,2.51,2.91,2.94,2.98,2.9,3.89,2.99,3.94,4.03,3.78,3.89,3.87,3.66,2696,11.233333,61779.368333,78.966675,937.362488,-198.997406,1.80438812333317,2.44532181474384,2.21196673517224,6.443628,801.743408,161.226181,150.888672,1175.754517,-13.148817,"LATERAL"
183,17,9,39.401,5242.58,0.550245,0.603446,0.293288,0.497056,-0.90758,0.37076,-0.10207,5239.36,0.153096,-0.711442,0.201231,-0.655682,-0.97752,0.05191,0.10618,2.37,2.41,2.51,2.91,2.94,2.98,2.9,3.9,2.99,3.94,4.03,3.78,3.89,3.87,3.66,2704,11.266667,61779.401667,78.761848,937.708496,-199.189697,1.80514473421259,2.44398171039762,2.21298649017408,6.488417,801.752502,161.184631,150.888672,1175.754517,-13.148817,"LATERAL"
184,17,9,39.406,5242.6,0.550255,0.603434,0.293291,0.497059,-0.90766,0.37204,-0.10355,5239.38,0.152044,-0.711966,0.20136,-0.655318,-0.97552,0.05743,0.12076,2.37,2.41,2.51,2.91,2.94,2.98,2.89,3.89,2.99,3.94,4.03,3.78,3.89,3.87,3.66,2706,11.275,61779.41,78.650238,937.82312,-199.238953,1.80553910502939,2.44353170283073,2.21326255389993,6.501261,801.758911,161.175995,150.888672,1175.754517,-13.148817,"LATERAL"
185,17,9,39.442,5242.62,0.550305,0.60341,0.293264,0.497049,-0.90826,0.3704,-0.10291,5239.4,0.150397,-0.712762,0.201515,-0.654784,-0.97918,0.05076,0.12638,2.38,2.41,2.51,2.91,2.94,2.98,2.9,3.89,2.99,3.94,4.03,3.78,3.89,3.87,3.66,2714,11.308333,61779.443333,77.959267,938.397949,-199.447937,1.80794640161344,2.44124165200966,2.21447308286414,6.533284,801.799194,161.11795,150.888672,1175.754517,-13.148817,"LATERAL"
186,17,9,39.447,5242.64,0.550377,0.603377,0.293216,0.497037,-0.90681,0.37144,-0.1032,5239.42,0.148412,-0.713652,0.201824,-0.654172,-0.98019,0.05329,0.1386,2.38,2.41,2.51,2.91,2.94,2.98,2.9,3.9,2.99,3.94,4.03,3.79,3.89,3.87,3.66,2715,11.3125,61779.4475,77.843903,938.487,-199.486969,1.80834242115872,2.44086358731211,2.21467266018682,6.533546,801.807007,161.115891,150.888672,1175.754517,-13.148817,"LATERAL"
187,17,9,39.481,5242.66,0.550435,0.603357,0.293145,0.497038,-0.90859,0.37272,-0.10285,5239.44,0.146108,-0.714593,0.202145,-0.653564,-0.98211,0.06649,0.13149,2.38,2.41,2.51,2.91,2.94,2.98,2.9,3.89,2.99,3.94,4.03,3.78,3.89,3.87,3.66,2724,11.35,61779.485,76.562401,939.329773,-199.821747,1.8127018164129,2.43718510891521,2.21635601306668,6.57084,801.828308,161.100403,150.888672,1175.754517,-13.148817,"LATERAL"
188,17,9,39.486,5242.68,0.55048,0.603308,0.29308,0.497087,-0.90962,0.37315,-0.10376,5239.46,0.143307,-0.715558,0.20224,-0.653099,-0.98453,0.05971,0.11417,2.38,2.41,2.51,2.91,2.94,2.98,2.9,3.9,2.99,3.94,4.03,3.78,3.89,3.87,3.66,2725,11.354167,61779.489167,76.41346,939.428284,-199.860275,1.81320915134344,2.43675616488551,2.2165507084445,6.57472,801.82843,161.103271,150.888672,1175.754517,-13.148817,"LATERAL"
189,17,9,39.52,5242.7,0.550511,0.603291,0.292954,0.497148,-0.90848,0.37233,-0.10301,5239.48,0.140312,-0.716379,0.202276,-0.652838,-0.98369,0.04776,0.10205,2.37,2.41,2.51,2.91,2.94,2.98,2.89,3.89,2.99,3.94,4.03,3.78,3.89,3.87,3.66,2733,11.3875,61779.5225,75.216667,940.173401,-200.139435,1.81727312502506,2.43346756109701,2.21794323007829,6.589796,801.805054,161.171097,150.888672,1175.754517,-13.148817,"LATERAL"
190,17,9,39.562,5242.72,0.550454,0.60329,0.292802,0.497301,-0.90479,0.37362,-0.10479,5239.5,0.137278,-0.716893,0.202433,-0.65287,-0.98483,0.04602,0.09256,2.38,2.41,2.51,2.91,2.94,2.98,2.89,3.9,2.99,3.94,4.03,3.78,3.89,3.87,3.66,2743,11.429167,61779.564167,73.867775,941.046509,-200.247452,1.82197958931611,2.43014034047357,2.21902658545617,6.548986,801.781433,161.294693,150.888672,1175.754517,-13.148817,"LATERAL"
191,17,9,39.567,5242.74,0.550341,0.603315,0.292691,0.497461,-0.90412,0.37605,-0.10479,5239.52,0.134103,-0.717151,0.202729,-0.653156,-0.98293,0.05307,0.08892,2.38,2.41,2.51,2.91,2.94,2.98,2.9,3.89,2.99,3.94,4.03,3.78,3.89,3.87,3.67,2744,11.433333,61779.568333,73.742386,941.131897,-200.24437,1.82242667106557,2.42985060783494,2.21910048417421,6.539555,801.78064,161.308243,150.888672,1175.754517,-13.148817,"LATERAL"
192,17,9,39.575,5242.76,0.550285,0.603336,0.292602,0.49755,-0.90411,0.37542,-0.10559,5239.54,0.1308,-0.717347,0.202917,-0.653551,-0.98254,0.06311,0.09426,2.37,2.41,2.51,2.91,2.94,2.98,2.9,3.89,2.99,3.94,4.03,3.78,3.89,3.87,3.66,2746,11.441667,61779.576667,73.494621,941.283386,-200.245438,1.82329590540191,2.42929762641537,2.21923257049348,6.526505,801.779541,161.338135,150.888672,1175.754517,-13.148817,"LATERAL"
193,17,9,39.601,5242.78,0.5502,0.603347,0.292606,0.497629,-0.90358,0.37282,-0.10739,5239.56,0.127198,-0.717666,0.202983,-0.653892,-0.97227,0.06925,0.10031,2.37,2.41,2.51,2.91,2.94,2.98,2.9,3.9,2.99,3.94,4.03,3.78,3.89,3.87,3.67,2752,11.466667,61779.601667,72.42971,941.639404,-200.297379,1.82682225901059,2.42742936123147,2.21936956748074,6.497456,801.769775,161.417847,150.888672,1175.754517,-13.148817,"LATERAL"
194,17,9,39.606,5242.8,0.55018,0.603308,0.292638,0.497678,-0.90372,0.37202,-0.10904,5239.58,0.123247,-0.718145,0.203021,-0.65411,-0.96884,0.07983,0.11459,2.38,2.41,2.51,2.91,2.94,2.98,2.9,3.9,2.99,3.94,4.03,3.78,3.89,3.87,3.67,2754,11.475,61779.61,71.87001,941.712341,-200.464828,1.82852991625669,2.42637016690956,2.21958703168303,6.493089,801.769348,161.427612,150.888672,1175.754517,-13.148817,"LATERAL"
195,17,9,39.641,5242.82,0.550171,0.603297,0.292736,0.497646,-0.90622,0.37172,-0.10627,5239.6,0.118715,-0.718876,0.202959,-0.654165,-0.96831,0.10134,0.13253,2.38,2.41,2.51,2.91,2.94,2.98,2.89,3.9,2.99,3.94,4.03,3.78,3.89,3.87,3.67,2762,11.508333,61779.643333,70.500214,942.507385,-200.529724,1.83328231252933,2.42323496983271,2.22035895834527,6.466686,801.759338,161.516541,150.888672,1175.754517,-13.148817,"LATERAL"
196,17,9,39.646,5242.84,0.55021,0.603262,0.292865,0.497568,-0.91091,0.37211,-0.10439,5239.62,0.114105,-0.719522,0.202946,-0.654279,-0.98125,0.11094,0.12875,2.38,2.41,2.51,2.91,2.94,2.98,2.9,3.89,2.99,3.94,4.03,3.78,3.89,3.86,3.67,2763,11.5125,61779.6475,70.327744,942.601257,-200.553543,1.83386876567424,2.42281695321816,2.22048359206283,6.466413,801.75769,161.526016,150.888672,1175.754517,-13.148817,"LATERAL"
197,17,9,39.681,5242.86,0.550285,0.603211,0.293039,0.497445,-0.90928,0.37071,-0.10493,5239.64,0.109463,-0.72006,0.203098,-0.654434,-0.97651,0.11227,0.11421,2.38,2.41,2.51,2.91,2.94,2.98,2.9,3.89,2.99,3.94,4.03,3.78,3.89,3.87,3.67,2772,11.55,61779.685,69.286751,943.291687,-200.756256,1.8374595310605,2.41989248575011,2.2216097156835,6.471097,801.740356,161.601654,150.888672,1175.754517,-13.148817,"LATERAL"
198,17,9,39.686,5242.88,0.550382,0.603144,0.293193,0.497328,-0.90845,0.36815,-0.10029,5239.66,0.104381,-0.720701,0.203552,-0.654416,-0.97285,0.11021,0.12315,2.38,2.41,2.51,2.91,2.94,2.98,2.9,3.89,2.99,3.94,4.03,3.78,3.89,3.87,3.67,2773,11.554167,61779.689167,68.821167,943.669128,-200.900146,1.83908313746847,2.41831601404043,2.22237335631868,6.480916,801.727478,161.621674,150.888672,1175.754517,-13.148817,"LATERAL"
199,17,9,39.721,5242.9,0.550398,0.603143,0.29331,0.497242,-0.90696,0.37017,-0.10038,5239.68,0.098651,-0.721396,0.20429,-0.65431,-0.98352,0.12899,0.14521,2.38,2.41,2.51,2.91,2.94,2.98,2.9,3.89,2.99,3.94,4.03,3.78,3.89,3.87,3.67,2781,11.5875,61779.7225,67.21891,944.827454,-201.332336,1.84461317019774,2.41331432446171,2.22456306164368,6.487713,801.690613,161.684906,150.888672,1175.754517,-13.148817,"LATERAL"
200,17,9,39.726,5242.92,0.550406,0.603095,0.293444,0.497213,-0.90735,0.3727,-0.09957,5239.7,0.092476,-0.72198,0.205248,-0.654267,-0.97689,0.17465,0.15949,2.38,2.41,2.51,2.91,2.94,2.98,2.89,3.9,3,3.94,4.03,3.78,3.89,3.87,3.67,2782,11.591667,61779.726667,67.120338,944.983337,-201.318893,1.84503301958449,2.41291186298508,2.22475061832861,6.486696,801.687805,161.693329,150.888672,1175.754517,-13.148817,"LATERAL"
201,17,9,39.76,5242.94,0.550391,0.603057,0.293577,0.497197,-0.90773,0.37071,-0.10247,5239.72,0.085621,-0.722558,0.206142,-0.654282,-0.97681,0.19092,0.15759,2.38,2.41,2.51,2.91,2.94,2.98,2.9,3.9,2.99,3.94,4.03,3.78,3.89,3.87,3.68,2790,11.625,61779.76,64.915764,946.39093,-202.060822,1.85243506613447,2.40606758197544,2.22775082797758,6.514651,801.693176,161.777832,150.888672,1175.754517,-13.148817,"LATERAL"
202,17,9,39.781,5242.96,0.550347,0.603064,0.293731,0.497146,-0.90911,0.36815,-0.10137,5239.74,0.078078,-0.723069,0.207148,-0.654343,-0.98253,0.19809,0.14936,2.38,2.41,2.51,2.91,2.94,2.98,2.9,3.89,2.99,3.94,4.03,3.78,3.89,3.87,3.67,2796,11.65,61779.785,63.779755,948.536987,-202.739517,1.8570708711739,2.3987805055637,2.23266854934074,6.523446,801.709106,161.842438,150.888672,1175.754517,-13.148817,"LATERAL"
203,17,9,39.786,5242.98,0.550306,0.603097,0.293818,0.4971,-0.90721,0.3674,-0.10243,5239.76,0.069876,-0.723391,0.208602,-0.654452,-0.97963,0.19833,0.15559,2.38,2.41,2.51,2.91,2.94,2.98,2.89,3.9,2.99,3.94,4.03,3.78,3.89,3.87,3.68,2797,11.654167,61779.789167,63.529202,948.833008,-202.858139,1.85798862258123,2.39762386117485,2.233343574195,6.525378,801.710754,161.855392,150.888672,1175.754517,-13.148817,"LATERAL"
204,17,9,39.822,5243,0.55031,0.603166,0.293861,0.496986,-0.91173,0.37462,-0.10289,5239.78,0.06106,-0.723508,0.210593,-0.654568,-0.97991,0.21066,0.16682,2.38,2.41,2.51,2.91,2.94,2.98,2.9,3.89,2.99,3.94,4.03,3.78,3.89,3.87,3.67,2805,11.6875,61779.8225,61.414459,951.407166,-203.988419,1.86571754943426,2.3873804133783,2.23948605000728,6.529757,801.712646,161.953888,150.888672,1175.754517,-13.148817,"LATERAL"
205,17,9,39.827,5243.02,0.550229,0.603163,0.293952,0.497026,-0.91108,0.37662,-0.10304,5239.8,0.051839,-0.723401,0.213057,-0.654684,-0.98007,0.23439,0.15374,2.38,2.41,2.51,2.91,2.94,2.98,2.89,3.9,2.99,3.94,4.03,3.78,3.89,3.87,3.67,2807,11.695833,61779.830833,60.930981,952.213257,-204.337143,1.86758716683847,2.38435117189354,2.24152135600887,6.540408,801.707581,161.981552,150.888672,1175.754517,-13.148817,"LATERAL"
206,17,9,39.861,5243.04,0.550083,0.603181,0.293989,0.497144,-0.90778,0.37212,-0.10128,5239.82,0.042416,-0.723025,0.215944,-0.654831,-0.9846,0.25047,0.13921,2.38,2.41,2.51,2.91,2.94,2.98,2.9,3.9,2.99,3.94,4.03,3.78,3.89,3.87,3.67,2815,11.729167,61779.864167,59.181709,955.056458,-205.672516,1.87425656130762,2.37335639957349,2.24891896790597,6.559766,801.706909,162.105423,150.888672,1175.754517,-13.148817,"LATERAL"
207,17,9,39.866,5243.06,0.549869,0.603241,0.293982,0.497312,-0.90897,0.36809,-0.10256,5239.84,0.032912,-0.722384,0.219487,-0.654908,-0.98009,0.26399,0.13473,2.38,2.41,2.51,2.91,2.94,2.98,2.89,3.89,3,3.94,4.02,3.78,3.89,3.86,3.67,2816,11.733333,61779.868333,58.547779,955.743469,-205.975632,1.87653796925044,2.37051867311879,2.2504852248921,6.561801,801.702759,162.146744,150.888672,1175.754517,-13.148817,"LATERAL"
208,17,9,39.901,5243.08,0.549655,0.603334,0.294016,0.497416,-0.90745,0.36954,-0.10318,5239.86,0.023234,-0.721425,0.223534,-0.65501,-0.97702,0.28017,0.13564,2.38,2.41,2.51,2.91,2.94,2.98,2.89,3.9,3,3.94,4.03,3.78,3.89,3.87,3.67,2824,11.766667,61779.901667,55.292057,957.397095,-207.046875,1.88716293037767,2.36119797735153,2.25368151348517,6.560324,801.671753,162.291443,150.888672,1175.754517,-13.148817,"LATERAL"
209,17,9,39.907,5243.1,0.549385,0.603469,0.294012,0.497552,-0.90822,0.3712,-0.10139,5239.88,0.01299,-0.720099,0.227874,-0.655257,-0.9751,0.29442,0.1435,2.38,2.41,2.51,2.91,2.94,2.98,2.89,3.9,2.99,3.94,4.03,3.78,3.89,3.87,3.67,2826,11.775,61779.91,54.147873,958.174438,-207.441223,1.89102341109603,2.35742673604716,2.25518888820314,6.561826,801.659912,162.327255,150.888672,1175.754517,-13.148817,"LATERAL"
210,17,9,39.941,5243.12,0.549081,0.603596,0.293997,0.497743,-0.9082,0.37104,-0.10139,5239.9,0.001955,-0.718475,0.232315,-0.655607,-0.96807,0.32629,0.15295,2.38,2.41,2.51,2.91,2.94,2.98,2.89,3.9,2.99,3.94,4.03,3.79,3.89,3.87,3.67,2834,11.808333,61779.943333,51.637466,962.239929,-209.139725,1.90072692862544,2.34194264203317,2.26497793524838,6.530262,801.638123,162.455994,150.888672,1175.754517,-13.148817,"LATERAL"
211,17,9,39.946,5243.14,0.548733,0.60378,0.294026,0.497887,-0.90653,0.3682,-0.10261,5239.92,-0.009629,-0.716569,0.236977,-0.655956,-0.97205,0.35683,0.16094,2.37,2.41,2.51,2.91,2.94,2.98,2.89,3.9,2.99,3.94,4.03,3.78,3.89,3.86,3.68,2835,11.8125,61779.9475,51.306145,962.801331,-209.348755,1.90203811062253,2.3398624965983,2.2662731763768,6.528901,801.627869,162.473846,150.888672,1175.754517,-13.148817,"LATERAL"
212,17,9,39.981,5243.16,0.548409,0.603949,0.294136,0.497972,-0.9089,0.36558,-0.10315,5239.94,-0.021334,-0.714567,0.24208,-0.656,-0.97042,0.38102,0.15848,2.38,2.41,2.51,2.91,2.94,2.98,2.89,3.9,2.99,3.94,4.03,3.78,3.89,3.87,3.67,2844,11.85,61779.985,48.228481,968.342041,-211.419937,1.91438765394002,2.31938629432437,2.27918347233427,6.519403,801.60553,162.598099,150.888672,1175.754517,-13.148817,"LATERAL"
213,17,9,39.986,5243.18,0.548078,0.604165,0.294248,0.498009,-0.90864,0.36468,-0.10043,5239.96,-0.033546,-0.7125,0.247078,-0.655874,-0.95661,0.41148,0.15194,2.38,2.41,2.51,2.91,2.94,2.98,2.89,3.9,2.99,3.95,4.03,3.79,3.89,3.87,3.67,2845,11.854167,61779.989167,47.863728,969.015808,-211.660751,1.91586911262652,2.31691263861953,2.28072639436888,6.5172,801.605103,162.616104,150.888672,1175.754517,-13.148817,"LATERAL"
214,17,9,40.022,5243.2,0.54771,0.604407,0.294339,0.498067,-0.91026,0.36675,-0.0983,5239.98,-0.046232,-0.710284,0.251874,-0.655682,-0.94683,0.42439,0.13982,2.38,2.41,2.51,2.91,2.94,2.98,2.89,3.9,2.99,3.95,4.03,3.79,3.89,3.87,3.67,2853,11.8875,61780.0225,45.173439,974.693115,-213.621536,1.92722533962463,2.29646406263871,2.2938695921841,6.498808,801.576172,162.721207,150.888672,1175.754517,-13.148817,"LATERAL"
215,17,9,40.027,5243.22,0.547319,0.604652,0.294439,0.49814,-0.91248,0.36761,-0.09848,5240,-0.058725,-0.707884,0.256568,-0.655457,-0.9461,0.42861,0.12891,2.38,2.41,2.51,2.91,2.94,2.98,2.89,3.9,2.99,3.95,4.03,3.79,3.88,3.87,3.67,2855,11.895833,61780.030833,44.588093,976.16449,-214.12735,1.92982437590453,2.29124515248873,2.29736875403531,6.496413,801.552917,162.741959,150.888672,1175.754517,-13.148817,"LATERAL"
216,17,9,40.061,5243.24,0.546871,0.604944,0.294557,0.498208,-0.91049,0.36666,-0.09518,5240.02,-0.070604,-0.705193,0.261526,-0.655227,-0.92482,0.4107,0.11455,2.38,2.41,2.51,2.91,2.94,2.98,2.89,3.9,2.99,3.95,4.03,3.79,3.88,3.86,3.66,2863,11.929167,61780.064167,42.463551,982.098694,-216.203445,1.93953339338891,2.27021131586466,2.31178080032569,6.452622,801.489685,162.768951,150.888672,1175.754517,-13.148817,"LATERAL"
217,17,9,40.066,5243.26,0.546486,0.605171,0.294742,0.498245,-0.90892,0.36513,-0.0938,5240.04,-0.081754,-0.702223,0.266787,-0.654999,-0.91809,0.41893,0.10472,2.38,2.41,2.51,2.91,2.94,2.98,2.89,3.9,2.99,3.95,4.03,3.79,3.88,3.87,3.66,2864,11.933333,61780.068333,42.21661,982.863281,-216.433792,1.9407315651105,2.26758035333111,2.31357180356782,6.452209,801.476563,162.77597,150.888672,1175.754517,-13.148817,"LATERAL"
218,17,9,40.1,5243.28,0.546136,0.605385,0.294944,0.49825,-0.90888,0.36391,-0.09698,5240.06,-0.092012,-0.699024,0.272263,-0.654806,-0.90674,0.42739,0.09717,2.38,2.41,2.51,2.91,2.94,2.98,2.89,3.9,2.99,3.95,4.03,3.79,3.88,3.87,3.66,2872,11.966667,61780.101667,40.578346,988.85022,-218.370743,1.94906254359856,2.24687625926353,2.32823956652572,6.38766,801.395874,162.804504,150.888672,1175.754517,-13.148817,"LATERAL"
219,17,9,40.121,5243.3,0.545704,0.605683,0.295103,0.498266,-0.91005,0.3619,-0.09328,5240.08,-0.101826,-0.69567,0.277892,-0.654561,-0.87463,0.45919,0.10925,2.37,2.41,2.51,2.91,2.94,2.98,2.89,3.9,2.99,3.95,4.04,3.79,3.88,3.86,3.66,2877,11.9875,61780.1225,39.652493,992.620361,-219.452026,1.95408677428044,2.2340626889218,2.33725420113164,6.339886,801.336914,162.829742,150.888672,1175.754517,-13.148817,"LATERAL"
220,17,9,40.128,5243.32,0.545252,0.605976,0.295124,0.498393,-0.91049,0.35897,-0.09197,5240.1,-0.111201,-0.691688,0.283762,-0.654738,-0.8874,0.48954,0.11567,2.37,2.41,2.51,2.91,2.94,2.98,2.89,3.9,2.99,3.95,4.03,3.79,3.88,3.86,3.66,2879,11.995833,61780.130833,35.848587,992.113525,-217.187073,1.9676374376797,2.23570763589356,2.32611293897569,6.323999,801.307556,162.845871,150.888672,1175.754517,-13.148817,"LATERAL"
221,17,9,40.162,5243.34,0.54475,0.6063,0.29518,0.498514,-0.91031,0.35864,-0.09436,5240.12,-0.119553,-0.68563,0.289982,-0.656909,-0.86782,0.50605,0.11691,2.37,2.41,2.51,2.91,2.94,2.98,2.89,3.9,2.99,3.95,4.04,3.79,3.89,3.86,3.67,2887,12.029167,61780.164167,34.127331,997.850342,-218.583878,1.97659799145167,2.21613832826965,2.33859078991738,6.237833,801.205688,162.930618,150.888672,1175.754517,-13.148817,"LATERAL"
222,17,9,40.168,5243.36,0.5444,0.606537,0.295334,0.498517,-0.91084,0.36368,-0.09377,5240.14,-0.128141,-0.680078,0.295546,-0.658579,-0.81247,0.51522,0.10313,2.37,2.41,2.51,2.91,2.94,2.98,2.89,3.9,2.99,3.95,4.03,3.79,3.89,3.86,3.66,2888,12.033333,61780.168333,33.903904,998.588989,-218.735107,1.97778473912045,2.21364924345604,2.34012018067828,6.222379,801.196838,162.933884,150.888672,1175.754517,-13.148817,"LATERAL"
223,17,9,40.203,5243.38,0.544101,0.606786,0.295515,0.498434,-0.91052,0.36393,-0.09166,5240.16,-0.13689,-0.67634,0.300068,-0.658623,-0.77398,0.51754,0.11138,2.37,2.41,2.51,2.91,2.94,2.98,2.89,3.9,2.99,3.95,4.04,3.79,3.89,3.87,3.66,2897,12.070833,61780.205833,32.002373,1004.615417,-219.926849,1.98774894580258,2.19317657136052,2.35233397694893,6.073051,801.080872,163.052597,150.888672,1175.754517,-13.148817,"LATERAL"
224,17,9,40.209,5243.4,0.543839,0.607078,0.295756,0.498221,-0.91164,0.36841,-0.09478,5240.18,-0.146583,-0.67341,0.303976,-0.657746,-0.80193,0.51704,0.108,2.38,2.41,2.51,2.91,2.94,2.98,2.89,3.9,2.99,3.95,4.03,3.8,3.89,3.87,3.66,2898,12.075,61780.21,31.803019,1005.261414,-220.088669,1.98876577715288,2.19091130888867,2.3537245614005,6.048324,801.068787,163.070404,150.888672,1175.754517,-13.148817,"LATERAL"
225,17,9,40.242,5243.42,0.543615,0.607305,0.29597,0.498061,-0.91302,0.36433,-0.09234,5240.2,-0.154788,-0.670088,0.308298,-0.657248,-0.8079,0.55399,0.10882,2.38,2.41,2.51,2.91,2.94,2.98,2.89,3.9,2.99,3.96,4.03,3.8,3.89,3.87,3.66,2906,12.108333,61780.243333,29.968536,1010.244019,-220.748856,1.99816413789735,2.17404258745896,2.36255308896762,5.868905,800.972839,163.201065,150.888672,1175.754517,-13.148817,"LATERAL"
226,17,9,40.248,5243.44,0.543391,0.607533,0.296169,0.497909,-0.91124,0.36429,-0.09082,5240.22,-0.162778,-0.666201,0.312406,-0.657329,-0.79796,0.58653,0.1062,2.37,2.41,2.51,2.91,2.94,2.98,2.89,3.9,2.99,3.95,4.03,3.8,3.89,3.87,3.65,2908,12.116667,61780.251667,29.500334,1011.486511,-220.908142,2.00054826112219,2.16980333551844,2.36470561587907,5.820321,800.945557,163.244659,150.888672,1175.754517,-13.148817,"LATERAL"
227,17,9,40.283,5243.46,0.543158,0.607766,0.296399,0.497742,-0.9107,0.36391,-0.09375,5240.24,-0.171225,-0.662211,0.316057,-0.65747,-0.76582,0.63396,0.08613,2.38,2.41,2.51,2.91,2.94,2.98,2.89,3.9,2.99,3.95,4.02,3.8,3.9,3.87,3.66,2916,12.15,61780.285,27.533325,1016.423462,-221.269501,2.01067141031245,2.15317935314569,2.37235188147441,5.630459,800.836731,163.435211,150.888672,1175.754517,-13.148817,"LATERAL"
228,17,9,40.29,5243.48,0.542919,0.607995,0.296613,0.497596,-0.91227,0.36326,-0.09113,5240.26,-0.180152,-0.658081,0.319041,-0.65779,-0.7681,0.64702,0.0686,2.38,2.41,2.51,2.91,2.94,2.98,2.89,3.9,2.99,3.95,4.02,3.8,3.9,3.87,3.65,2918,12.158333,61780.293333,27.057449,1017.69397,-221.379425,2.01316506653243,2.14886960773566,2.37437952309146,5.590127,800.798889,163.490067,150.888672,1175.754517,-13.148817,"LATERAL"
229,17,9,40.323,5243.5,0.542658,0.608278,0.296779,0.497436,-0.91417,0.36581,-0.09007,5240.28,-0.188517,-0.653701,0.322423,-0.658164,-0.75635,0.65559,0.05706,2.38,2.41,2.51,2.91,2.94,2.98,2.89,3.9,2.99,3.95,4.02,3.81,3.9,3.87,3.65,2926,12.191667,61780.326667,25.410622,1022.893677,-221.833221,2.02242839619064,2.13137532329296,2.38305221295346,5.376321,800.682617,163.722519,150.888672,1175.754517,-13.148817,"LATERAL"
230,17,9,40.329,5243.52,0.54249,0.608481,0.296967,0.497259,-0.91009,0.36421,-0.08585,5240.3,-0.196782,-0.649414,0.326241,-0.658108,-0.73521,0.67822,0.05776,2.38,2.41,2.51,2.91,2.94,2.98,2.89,3.9,2.99,3.95,4.02,3.81,3.91,3.87,3.65,2927,12.195833,61780.330833,25.263046,1023.572571,-221.912598,2.02340177117201,2.12910707840686,2.38432966469798,5.35459,800.668823,163.751328,150.888672,1175.754517,-13.148817,"LATERAL"
231,17,9,40.36,5243.54,0.542393,0.608624,0.297208,0.497045,-0.91138,0.36593,-0.08611,5240.32,-0.204641,-0.645194,0.330475,-0.657748,-0.7484,0.68319,0.05347,2.38,2.41,2.51,2.92,2.94,2.98,2.89,3.9,2.99,3.95,4.02,3.82,3.91,3.87,3.65,2934,12.225,61780.36,24.003969,1028.367432,-222.282043,2.03118448692824,2.11307190967635,2.39248228425221,5.197463,800.58667,163.963043,150.888672,1175.754517,-13.148817,"LATERAL"
232,17,9,40.382,5243.56,0.542339,0.608762,0.297445,0.496794,-0.91265,0.36621,-0.08465,5240.34,-0.212156,-0.641122,0.334884,-0.657118,-0.70454,0.68767,0.0466,2.38,2.41,2.51,2.91,2.94,2.98,2.89,3.9,2.99,3.95,4.02,3.82,3.91,3.86,3.65,2940,12.25,61780.385,23.027189,1032.598145,-222.626694,2.03759392943761,2.09885986899433,2.39984747670881,5.091552,800.520508,164.116577,150.888672,1175.754517,-13.148817,"LATERAL"
233,17,9,40.393,5243.58,0.542294,0.608877,0.297703,0.496547,-0.91146,0.36618,-0.0847,5240.36,-0.219316,-0.637021,0.339568,-0.656352,-0.71559,0.70351,0.04696,2.38,2.42,2.51,2.91,2.94,2.98,2.89,3.9,2.99,3.95,4.02,3.83,3.92,3.86,3.65,2942,12.258333,61780.393333,22.691814,1033.980835,-222.760132,2.0397079339515,2.09413675195447,2.40225557033169,5.046147,800.505432,164.163925,150.888672,1175.754517,-13.148817,"LATERAL"
234,17,9,40.424,5243.6,0.542222,0.609005,0.297981,0.496301,-0.91037,0.36529,-0.08269,5240.38,-0.226483,-0.632768,0.343838,-0.655809,-0.68129,0.71408,0.0419,2.38,2.42,2.51,2.92,2.94,2.98,2.89,3.9,2.99,3.95,4.03,3.83,3.92,3.86,3.65,2950,12.291667,61780.426667,21.359777,1039.388306,-222.895844,2.04853876303443,2.07606810813026,2.41060844462105,4.894401,800.434875,164.304108,150.888672,1175.754517,-13.148817,"LATERAL"
235,17,9,40.434,5243.62,0.542208,0.60909,0.298264,0.496042,-0.91554,0.36379,-0.08119,5240.4,-0.233903,-0.628655,0.347852,-0.655043,-0.65773,0.72067,0.03439,2.38,2.42,2.51,2.92,2.94,2.98,2.89,3.9,2.99,3.94,4.03,3.85,3.92,3.86,3.65,2952,12.3,61780.435,21.043285,1040.74585,-222.925751,2.05070248813697,2.07151396349175,2.4126985449756,4.857506,800.421875,164.331024,150.888672,1175.754517,-13.148817,"LATERAL"
236,17,9,40.463,5243.64,0.542186,0.609167,0.298543,0.495804,-0.91652,0.3608,-0.07856,5240.42,-0.241097,-0.624298,0.351729,-0.654531,-0.70321,0.74724,0.0229,2.38,2.42,2.51,2.92,2.94,2.98,2.89,3.9,2.99,3.94,4.03,3.85,3.93,3.86,3.65,2959,12.329167,61780.464167,19.867397,1045.252075,-222.901138,2.05844575380791,2.05634669071826,2.41901558197106,4.737204,800.355896,164.405502,150.888672,1175.754517,-13.148817,"LATERAL"
237,17,9,40.474,5243.66,0.54213,0.609235,0.298829,0.49561,-0.91577,0.36042,-0.07779,5240.44,-0.248175,-0.619418,0.35524,-0.654625,-0.59516,0.74114,0.02293,2.38,2.42,2.51,2.92,2.94,2.98,2.89,3.9,2.99,3.94,4.04,3.86,3.93,3.85,3.65,2962,12.341667,61780.476667,19.387157,1047.190674,-222.875183,2.06171493119153,2.04981055540224,2.42169656425138,4.686188,800.332031,164.427185,150.888672,1175.754517,-13.148817,"LATERAL"
238,17,9,40.5,5243.68,0.542117,0.609279,0.299072,0.495423,-0.91413,0.35863,-0.07715,5240.46,-0.256086,-0.615099,0.358206,-0.654035,-0.63491,0.75162,0.02152,2.38,2.42,2.51,2.92,2.94,2.98,2.89,3.9,2.99,3.94,4.05,3.87,3.94,3.85,3.65,2968,12.366667,61780.501667,18.422951,1050.952148,-222.72142,2.06830603313631,2.03714694675833,2.42650248093752,4.56486,800.312439,164.459915,150.888672,1175.754517,-13.148817,"LATERAL"
239,17,9,40.507,5243.7,0.542047,0.609321,0.299353,0.495278,-0.91636,0.36053,-0.07741,5240.48,-0.26283,-0.610126,0.361687,-0.654102,-0.6675,0.77515,0.006,2.38,2.42,2.51,2.92,2.94,2.98,2.89,3.9,2.99,3.94,4.04,3.87,3.95,3.84,3.65,2970,12.375,61780.51,18.163414,1052.209839,-222.686447,2.07028513544602,2.0329156438693,2.42824599235338,4.537148,800.304565,164.469513,150.888672,1175.754517,-13.148817,"LATERAL"
240,17,9,40.542,5243.72,0.541975,0.609412,0.299556,0.495123,-0.91785,0.35951,-0.07793,5240.5,-0.270306,-0.605634,0.364776,-0.653514,-0.53303,0.77842,-0.00344,2.38,2.42,2.51,2.92,2.94,2.98,2.89,3.9,2.99,3.94,4.05,3.88,3.95,3.85,3.65,2978,12.408333,61780.543333,17.042822,1057.083374,-222.406631,2.07852498393806,2.01647650708183,2.43430468525265,4.39953,800.27771,164.493515,150.888672,1175.754517,-13.148817,"LATERAL"
241,17,9,40.548,5243.74,0.541901,0.609501,0.299698,0.495008,-0.91635,0.358,-0.07711,5240.52,-0.277414,-0.601022,0.367913,-0.653035,-0.66052,0.78908,-0.00368,2.38,2.42,2.51,2.92,2.94,2.98,2.89,3.9,3,3.94,4.05,3.89,3.96,3.84,3.65,2980,12.416667,61780.551667,16.769306,1058.290039,-222.292221,2.08062018239662,2.01243440885502,2.43567315582893,4.371534,800.271057,164.486084,150.888672,1175.754517,-13.148817,"LATERAL"
242,17,9,40.597,5243.76,0.541715,0.609657,0.299888,0.494905,-0.91631,0.3603,-0.07542,5240.54,-0.284222,-0.596667,0.370831,-0.65245,-0.49988,0.77823,-0.00616,2.38,2.43,2.51,2.92,2.94,2.98,2.89,3.9,3,3.94,4.06,3.9,3.96,3.84,3.66,2991,12.4625,61780.5975,15.444665,1064.515015,-221.773224,2.09103249512166,1.99133642001132,2.44286331581958,4.187593,800.269958,164.437592,150.888672,1175.754517,-13.148817,"LATERAL"
243,17,9,40.604,5243.78,0.541725,0.609667,0.300023,0.4948,-0.91575,0.36278,-0.07474,5240.56,-0.29103,-0.592712,0.373322,-0.651633,-0.59073,0.79124,-0.00943,2.38,2.43,2.51,2.92,2.94,2.98,2.89,3.9,3,3.94,4.06,3.9,3.97,3.84,3.66,2993,12.470833,61780.605833,15.154078,1065.553345,-221.588531,2.0931470214554,1.98784702891022,2.44364147066631,4.158348,800.275574,164.414902,150.888672,1175.754517,-13.148817,"LATERAL"
244,17,9,40.62,5243.8,0.541683,0.609726,0.300226,0.494648,-0.91474,0.36176,-0.07905,5240.58,-0.296912,-0.588305,0.375935,-0.65147,-0.54459,0.78737,-0.02094,2.38,2.43,2.51,2.92,2.94,2.98,2.89,3.9,3,3.94,4.06,3.91,3.97,3.83,3.66,2997,12.4875,61780.6225,14.532876,1067.404541,-221.212433,2.09732511396668,1.98157209450352,2.44465652834256,4.109961,800.288208,164.356262,150.888672,1175.754517,-13.148817,"LATERAL"
245,17,9,40.641,5243.82,0.541682,0.609752,0.300371,0.49453,-0.91661,0.35913,-0.07537,5240.6,-0.304022,-0.584412,0.377403,-0.650846,-0.52958,0.79435,-0.02128,2.38,2.43,2.51,2.92,2.94,2.98,2.89,3.9,3.01,3.94,4.06,3.92,3.98,3.83,3.66,3002,12.508333,61780.643333,13.556188,1069.672485,-220.668762,2.10327602907098,1.97376292381118,2.44515204636829,4.065968,800.308228,164.312439,150.888672,1175.754517,-13.148817,"LATERAL"
246,17,9,40.645,5243.84,0.541698,0.609784,0.300457,0.494422,-0.91846,0.35957,-0.07593,5240.62,-0.310921,-0.578807,0.378265,-0.652093,-0.5547,0.84902,-0.00317,2.38,2.43,2.51,2.92,2.94,2.98,2.89,3.9,3.01,3.93,4.06,3.92,3.98,3.83,3.66,3003,12.5125,61780.6475,13.362245,1070.111572,-220.532776,2.10449638027567,1.9722778760895,2.44515372594152,4.064966,800.303467,164.304993,150.888672,1175.754517,-13.148817,"LATERAL"
247,17,9,40.679,5243.86,0.541642,0.609875,0.300573,0.4943,-0.91516,0.35857,-0.07601,5240.64,-0.31866,-0.573459,0.379033,-0.652637,-0.49091,0.85847,-0.05976,2.38,2.43,2.51,2.92,2.94,2.98,2.89,3.9,3.01,3.93,4.06,3.93,3.98,3.82,3.66,3011,12.545833,61780.680833,12.163919,1074.080933,-219.776215,2.11297699455212,1.95863489510542,2.44741186159465,4.065342,800.327576,164.349594,150.888672,1175.754517,-13.148817,"LATERAL"
248,17,9,40.703,5243.88,0.541681,0.609882,0.300567,0.494252,-0.91874,0.35665,-0.07279,5240.66,-0.325403,-0.568678,0.381486,-0.652064,-0.48282,0.84445,-0.09881,2.38,2.43,2.51,2.92,2.94,2.98,2.89,3.9,3.02,3.93,4.07,3.94,3.99,3.82,3.66,3017,12.570833,61780.705833,11.795907,1077.393555,-219.467133,2.11747668754073,1.94724549914477,2.45137491010794,4.118678,800.352661,164.411163,150.888672,1175.754517,-13.148817,"LATERAL"
249,17,9,40.708,5243.9,0.541772,0.609912,0.30057,0.494114,-0.91406,0.36462,-0.07324,5240.68,-0.331796,-0.56423,0.38519,-0.650526,-0.54124,0.84684,-0.07875,2.38,2.43,2.51,2.92,2.94,2.98,2.89,3.9,3.02,3.93,4.07,3.94,3.99,3.82,3.66,3018,12.575,61780.71,11.764122,1077.925537,-219.424423,2.11809746139338,1.94541925515437,2.45208252377886,4.119213,800.364685,164.425659,150.888672,1175.754517,-13.148817,"LATERAL"
250,17,9,40.74,5243.92,0.541944,0.609736,0.300686,0.494071,-0.90859,0.36989,-0.07335,5240.7,-0.336248,-0.559362,0.388682,-0.650367,-0.49963,0.83834,-0.07558,2.38,2.43,2.51,2.92,2.94,2.98,2.89,3.9,3.02,3.93,4.07,3.95,3.99,3.81,3.66,3026,12.608333,61780.743333,11.459421,1082.226318,-218.91861,2.12352559395103,1.93068979830442,2.45721584209642,4.171266,800.434082,164.461517,150.888672,1175.754517,-13.148817,"LATERAL"
251,17,9,40.746,5243.94,0.542152,0.609541,0.30086,0.493979,-0.91127,0.37186,-0.07547,5240.72,-0.34176,-0.555813,0.391423,-0.648891,-0.42678,0.84429,-0.07002,2.38,2.43,2.51,2.92,2.94,2.98,2.89,3.9,3.03,3.93,4.07,3.95,4,3.81,3.66,3027,12.6125,61780.7475,11.367825,1082.723633,-218.827087,2.12439055510272,1.92896817413528,2.45758271234828,4.178171,800.436279,164.466888,150.888672,1175.754517,-13.148817,"LATERAL"
252,17,9,40.781,5243.96,0.542415,0.609357,0.300988,0.493837,-0.91445,0.36965,-0.07755,5240.74,-0.346153,-0.551592,0.39456,-0.648265,-0.51163,0.86412,-0.0681,2.38,2.43,2.51,2.92,2.94,2.98,2.88,3.89,3.03,3.93,4.08,3.96,4.01,3.81,3.66,3036,12.65,61780.785,10.950254,1087.036987,-218.187607,2.13038518219085,1.91403453133795,2.4619341855182,4.224579,800.484436,164.419128,150.888672,1175.754517,-13.148817,"LATERAL"
253,17,9,40.787,5243.98,0.542611,0.60921,0.301138,0.493714,-0.91938,0.36462,-0.07436,5240.76,-0.350932,-0.547362,0.39733,-0.647588,-0.35803,0.86314,-0.09391,2.38,2.43,2.51,2.91,2.94,2.98,2.88,3.9,3.04,3.93,4.08,3.96,4.01,3.8,3.66,3037,12.654167,61780.789167,10.913186,1087.489258,-218.129364,2.13097334283792,1.91245263589204,2.46241632504383,4.228477,800.48877,164.413742,150.888672,1175.754517,-13.148817,"LATERAL"
254,17,9,40.821,5244,0.542698,0.609121,0.301254,0.493656,-0.91596,0.35772,-0.07527,5240.78,-0.356461,-0.542751,0.399844,-0.646901,-0.45796,0.87085,-0.10095,2.38,2.43,2.51,2.91,2.94,2.98,2.88,3.9,3.04,3.93,4.08,3.97,4.02,3.8,3.66,3045,12.6875,61780.8225,10.655665,1090.929932,-217.584732,2.13554006096854,1.90046872082857,2.46582944678249,4.250837,800.546021,164.338547,150.888672,1175.754517,-13.148817,"LATERAL"
255,17,9,40.826,5244.02,0.542816,0.609034,0.301317,0.493596,-0.91258,0.35451,-0.07429,5240.8,-0.36054,-0.537635,0.402051,-0.647545,-0.41361,0.86872,-0.09199,2.38,2.42,2.51,2.9,2.94,2.98,2.87,3.9,3.05,3.93,4.08,3.97,4.02,3.8,3.66,3046,12.691667,61780.826667,10.638124,1091.340332,-217.518951,2.13604173404158,1.89904058041027,2.46625932725046,4.25369,800.549438,164.325577,150.888672,1175.754517,-13.148817,"LATERAL"
256,17,9,40.861,5244.04,0.542897,0.608931,0.301363,0.493605,-0.9138,0.35789,-0.07921,5240.82,-0.365634,-0.533463,0.403811,-0.647044,-0.36792,0.87263,-0.09126,2.38,2.42,2.51,2.9,2.94,2.98,2.86,3.9,3.06,3.93,4.08,3.97,4.03,3.8,3.66,3055,12.729167,61780.864167,10.463997,1095.003174,-216.93541,2.14054645949608,1.88619441107287,2.46997737449066,4.307533,800.575928,164.254807,150.888672,1175.754517,-13.148817,"LATERAL"
257,17,9,40.866,5244.06,0.542788,0.608932,0.301464,0.493662,-0.91551,0.35992,-0.07657,5240.84,-0.369092,-0.52901,0.406462,-0.647077,-0.46927,0.88157,-0.11135,2.38,2.42,2.51,2.9,2.94,2.98,2.86,3.9,3.06,3.93,4.08,3.97,4.03,3.8,3.66,3056,12.733333,61780.868333,10.504573,1095.438599,-216.881027,2.14085188683214,1.88468392945208,2.47060517238786,4.314423,800.575378,164.25116,150.888672,1175.754517,-13.148817,"LATERAL"
258,17,9,40.901,5244.08,0.542779,0.608913,0.301399,0.493735,-0.91612,0.35821,-0.07833,5240.86,-0.372751,-0.52526,0.409135,-0.646349,-0.28657,0.87838,-0.12681,2.38,2.42,2.5,2.9,2.94,2.98,2.85,3.9,3.07,3.93,4.08,3.98,4.03,3.8,3.67,3064,12.766667,61780.901667,10.535095,1098.57666,-216.392242,2.14406514608983,1.873650255532,2.47415808673497,4.34076,800.604187,164.221405,150.888672,1175.754517,-13.148817,"LATERAL"
259,17,9,40.907,5244.1,0.542825,0.608925,0.301288,0.493739,-0.91319,0.35969,-0.07605,5240.88,-0.376591,-0.521279,0.411788,-0.645662,-0.40927,0.89912,-0.10229,2.38,2.42,2.5,2.9,2.94,2.98,2.85,3.9,3.07,3.92,4.08,3.97,4.03,3.8,3.67,3066,12.775,61780.91,10.509821,1099.363403,-216.252258,2.14500581007832,1.87086096092022,2.47490288085096,4.338692,800.613647,164.207535,150.888672,1175.754517,-13.148817,"LATERAL"
260,17,9,40.941,5244.12,0.542822,0.608917,0.30124,0.49378,-0.91005,0.36499,-0.07912,5240.9,-0.379309,-0.516665,0.414265,-0.646194,-0.37746,0.91476,-0.10713,2.38,2.42,2.5,2.9,2.94,2.98,2.84,3.89,3.08,3.92,4.08,3.98,4.04,3.8,3.68,3074,12.808333,61780.943333,10.41522,1102.184937,-215.71405,2.14844608348785,1.86082941357956,2.47741393645335,4.3277,800.656982,164.184189,150.888672,1175.754517,-13.148817,"LATERAL"
261,17,9,40.946,5244.14,0.5428,0.608938,0.301204,0.4938,-0.91031,0.36321,-0.07786,5240.92,-0.383074,-0.513139,0.416067,-0.645624,-0.30798,0.8988,-0.12718,2.38,2.42,2.5,2.9,2.94,2.98,2.83,3.89,3.09,3.92,4.08,3.98,4.04,3.8,3.68,3075,12.8125,61780.9475,10.408431,1102.526978,-215.633636,2.14887631601059,1.85962375991534,2.47768784080358,4.330221,800.654968,164.182388,150.888672,1175.754517,-13.148817,"LATERAL"
262,17,9,40.981,5244.16,0.542754,0.608975,0.301206,0.493804,-0.91532,0.36211,-0.08114,5240.94,-0.386359,-0.509206,0.418608,-0.645138,-0.35924,0.8893,-0.13321,2.38,2.42,2.5,2.9,2.94,2.97,2.83,3.9,3.09,3.91,4.08,3.99,4.04,3.8,3.68,3084,12.85,61780.985,10.45322,1105.412964,-215.069214,2.15192808446974,1.84935396942263,2.48049447714487,4.309757,800.663635,164.165512,150.888672,1175.754517,-13.148817,"LATERAL"
263,17,9,40.986,5244.18,0.542743,0.609,0.301187,0.493797,-0.91638,0.36232,-0.08004,5240.96,-0.388307,-0.504911,0.42127,-0.645611,-0.32345,0.89584,-0.12064,2.39,2.42,2.5,2.9,2.94,2.97,2.82,3.89,3.1,3.91,4.08,4,4.04,3.8,3.68,3085,12.854167,61780.989167,10.461447,1105.699341,-215.006454,2.1522304022591,1.84833755852283,2.48076177713487,4.306694,800.668152,164.168167,150.888672,1175.754517,-13.148817,"LATERAL"
264,17,9,41.02,5244.2,0.542782,0.609011,0.301156,0.493759,-0.91307,0.3619,-0.08104,5240.98,-0.39132,-0.500925,0.423126,-0.645683,-0.34743,0.91124,-0.14617,2.39,2.42,2.5,2.9,2.94,2.97,2.82,3.89,3.11,3.9,4.08,4,4.05,3.8,3.69,3093,12.8875,61781.0225,10.28068,1107.736328,-214.333008,2.15562083743476,1.84112898757574,2.48142016378392,4.309379,800.674927,164.187347,150.888672,1175.754517,-13.148817,"LATERAL"
265,17,9,41.042,5244.22,0.54278,0.60902,0.301143,0.493759,-0.91139,0.36114,-0.0801,5241,-0.393225,-0.495658,0.425336,-0.647137,-0.39659,0.93379,-0.14277,2.39,2.42,2.5,2.89,2.94,2.97,2.81,3.89,3.11,3.9,4.08,4.01,4.05,3.8,3.69,3098,12.908333,61781.043333,10.1439,1108.998779,-213.864929,2.15790613502797,1.83666114866461,2.48160243162143,4.336297,800.685486,164.217941,150.888672,1175.754517,-13.148817,"LATERAL"
266,17,9,41.048,5244.24,0.542795,0.608994,0.301122,0.493787,-0.91146,0.36227,-0.07973,5241.02,-0.395723,-0.490474,0.427028,-0.648449,-0.24119,0.93096,-0.14345,2.39,2.42,2.49,2.89,2.95,2.97,2.8,3.89,3.11,3.89,4.08,4.01,4.05,3.79,3.69,3100,12.916667,61781.051667,10.121313,1109.526245,-213.720734,2.15864104061556,1.83476490763294,2.48189176863671,4.353717,800.691833,164.236145,150.888672,1175.754517,-13.148817,"LATERAL"
267,17,9,41.081,5244.26,0.542654,0.609171,0.301161,0.4937,-0.91408,0.36215,-0.07619,5241.04,-0.398633,-0.485191,0.428592,-0.649608,-0.27858,0.92796,-0.15187,2.39,2.42,2.48,2.89,2.95,2.97,2.8,3.89,3.12,3.89,4.08,4.02,4.05,3.79,3.69,3108,12.95,61781.085,10.233476,1111.866211,-213.175476,2.16099575797989,1.8263541824397,2.48395797524839,4.429145,800.727295,164.269043,150.888672,1175.754517,-13.148817,"LATERAL"
268,17,9,41.088,5244.28,0.542712,0.609114,0.301186,0.493691,-0.91258,0.36326,-0.0779,5241.06,-0.401195,-0.480618,0.430599,-0.650103,-0.25356,0.91753,-0.15867,2.39,2.42,2.47,2.89,2.95,2.97,2.79,3.89,3.13,3.88,4.08,4.02,4.05,3.79,3.69,3109,12.954167,61781.089167,10.238509,1112.177002,-213.123154,2.16129691867836,1.82520956796333,2.48424761140748,4.435386,800.738037,164.275635,150.888672,1175.754517,-13.148817,"LATERAL"
269,17,9,41.122,5244.3,0.542889,0.609091,0.301168,0.493536,-0.91417,0.36691,-0.07561,5241.08,-0.403925,-0.476537,0.433379,-0.649569,-0.29356,0.93549,-0.14936,2.39,2.42,2.47,2.89,2.95,2.97,2.78,3.89,3.13,3.88,4.08,4.03,4.05,3.79,3.69,3117,12.9875,61781.1225,10.311725,1114.57373,-212.557938,2.16383116454903,1.81649227574427,2.48614387600625,4.496203,800.78772,164.205673,150.888672,1175.754517,-13.148817,"LATERAL"
270,17,9,41.127,5244.32,0.543029,0.608986,0.301201,0.493491,-0.91091,0.36689,-0.0739,5241.1,-0.405597,-0.472532,0.435897,-0.649767,-0.31557,0.95081,-0.15079,2.39,2.42,2.46,2.89,2.95,2.97,2.78,3.89,3.13,3.87,4.07,4.04,4.06,3.79,3.7,3119,12.995833,61781.130833,10.317148,1115.153442,-212.388824,2.16454975450808,1.81439111964885,2.48647635771536,4.509574,800.808167,164.183319,150.888672,1175.754517,-13.148817,"LATERAL"
271,17,9,41.16,5244.34,0.543142,0.60891,0.301227,0.493444,-0.91598,0.3626,-0.07683,5241.12,-0.408168,-0.468957,0.437842,-0.64944,-0.17051,0.94325,-0.16295,2.39,2.42,2.46,2.9,2.95,2.97,2.77,3.89,3.14,3.87,4.07,4.04,4.06,3.79,3.7,3126,13.025,61781.16,10.319244,1117.271118,-211.87706,2.16699519387172,1.80658563601873,2.48785320752403,4.547646,800.851929,164.082016,150.888672,1175.754517,-13.148817,"LATERAL"
272,17,9,41.181,5244.36,0.543033,0.608918,0.301309,0.493505,-0.92207,0.35592,-0.07411,5241.14,-0.410582,-0.465265,0.43995,-0.64915,-0.30795,0.95258,-0.1808,2.39,2.42,2.46,2.9,2.96,2.97,2.76,3.89,3.14,3.86,4.08,4.05,4.06,3.79,3.7,3132,13.05,61781.185,10.360003,1119.049805,-211.401184,2.16900374500271,1.80004045147607,2.48895887512148,4.584299,800.893921,164.006119,150.888672,1175.754517,-13.148817,"LATERAL"
273,17,9,41.188,5244.38,0.543078,0.608868,0.301219,0.493572,-0.91666,0.35474,-0.07751,5241.16,-0.412568,-0.46135,0.442268,-0.64911,-0.19875,0.93968,-0.17498,2.4,2.43,2.46,2.9,2.96,2.97,2.75,3.89,3.15,3.86,4.08,4.05,4.06,3.79,3.7,3133,13.054167,61781.189167,10.3955,1119.382813,-211.338211,2.1692291373778,1.79880560902596,2.4893064539321,4.58841,800.901123,163.993088,150.888672,1175.754517,-13.148817,"LATERAL"
274,17,9,41.222,5244.4,0.543023,0.608875,0.301117,0.493686,-0.91548,0.35737,-0.07973,5241.18,-0.414821,-0.45776,0.444215,-0.648886,-0.22541,0.93609,-0.1743,2.4,2.43,2.45,2.9,2.97,2.97,2.75,3.89,3.15,3.85,4.08,4.05,4.06,3.79,3.7,3141,13.0875,61781.2225,10.445115,1121.7854,-210.689423,2.17194582218017,1.78988799382059,2.49067917781686,4.622387,800.953918,163.879669,150.888672,1175.754517,-13.148817,"LATERAL"
275,17,9,41.228,5244.42,0.542996,0.60888,0.30093,0.493824,-0.91523,0.36094,-0.07915,5241.2,-0.416929,-0.454238,0.446261,-0.648605,-0.21692,0.93396,-0.1729,2.4,2.43,2.45,2.91,2.98,2.97,2.74,3.89,3.16,3.84,4.08,4.05,4.06,3.79,3.71,3143,13.095833,61781.230833,10.422828,1122.359985,-210.514709,2.17274801173794,1.78774048978134,2.4908435207476,4.631413,800.964783,163.852753,150.888672,1175.754517,-13.148817,"LATERAL"
276,17,9,41.26,5244.44,0.543,0.608868,0.300775,0.493928,-0.91382,0.36265,-0.07868,5241.22,-0.419324,-0.450849,0.44816,-0.648117,-0.21622,0.94896,-0.172,2.4,2.43,2.44,2.91,2.98,2.96,2.73,3.89,3.16,3.83,4.08,4.06,4.06,3.79,3.71,3150,13.125,61781.26,10.443231,1124.537598,-209.885956,2.17535292057023,1.77959028466662,2.49181060135244,4.663594,801.021912,163.743927,150.888672,1175.754517,-13.148817,"LATERAL"
277,17,9,41.281,5244.46,0.543003,0.608864,0.300655,0.494003,-0.91373,0.36185,-0.08095,5241.24,-0.421976,-0.447565,0.450183,-0.647269,-0.16568,0.93213,-0.18773,2.4,2.43,2.44,2.92,2.99,2.96,2.72,3.89,3.17,3.83,4.08,4.06,4.05,3.79,3.71,3156,13.15,61781.285,10.444783,1126.430176,-209.258423,2.1778345463586,1.7725006665319,2.49233584052097,4.695193,801.086914,163.656525,150.888672,1175.754517,-13.148817,"LATERAL"
278,17,9,41.287,5244.48,0.543046,0.608859,0.300508,0.494051,-0.91476,0.35962,-0.07891,5241.26,-0.424551,-0.444741,0.45205,-0.64623,-0.22555,0.95192,-0.17348,2.4,2.43,2.44,2.92,3,2.96,2.72,3.88,3.17,3.82,4.08,4.06,4.06,3.79,3.72,3157,13.154167,61781.289167,10.428177,1126.760498,-209.142288,2.17833738730661,1.77125440351317,2.49235299732306,4.70049,801.092407,163.641052,150.888672,1175.754517,-13.148817,"LATERAL"
279,17,9,41.32,5244.5,0.543037,0.608853,0.300409,0.494129,-0.91364,0.36217,-0.08153,5241.28,-0.426801,-0.441971,0.453901,-0.64535,-0.22649,0.95747,-0.17378,2.4,2.44,2.44,2.93,3.01,2.96,2.71,3.88,3.18,3.82,4.08,4.06,4.06,3.78,3.72,3165,13.1875,61781.3225,10.718452,1129.579956,-208.91925,2.1794195693477,1.76026877198127,2.49563794952586,4.743461,801.190247,163.527817,150.888672,1175.754517,-13.148817,"LATERAL"
280,17,9,41.342,5244.52,0.543113,0.608809,0.300256,0.494193,-0.91473,0.36278,-0.07863,5241.3,-0.428944,-0.439151,0.455718,-0.644573,-0.10273,0.93891,-0.17882,2.4,2.44,2.44,2.94,3.01,2.96,2.7,3.88,3.18,3.81,4.08,4.06,4.06,3.78,3.72,3170,13.208333,61781.343333,10.753276,1129.293701,-208.877304,2.17924451204055,1.76145724953387,2.49535009178419,4.781366,801.24469,163.451141,150.888672,1175.754517,-13.148817,"LATERAL"
281,17,9,41.348,5244.54,0.543171,0.608754,0.30008,0.494305,-0.91471,0.36382,-0.08071,5241.32,-0.431613,-0.436694,0.457311,-0.643331,-0.19502,0.94645,-0.1856,2.4,2.44,2.44,2.95,3.02,2.96,2.69,3.88,3.19,3.8,4.08,4.06,4.06,3.78,3.72,3172,13.216667,61781.351667,10.753276,1129.293701,-208.877304,2.17924451204055,1.76145724953387,2.49535009178419,4.797988,801.270752,163.426163,150.888672,1175.754517,-13.148817,"LATERAL"
282,17,9,41.38,5244.56,0.543191,0.608748,0.299954,0.494366,-0.9127,0.36445,-0.07905,5241.34,-0.43351,-0.433926,0.459313,-0.642502,-0.19128,0.94547,-0.18781,2.4,2.44,2.45,2.95,3.02,2.96,2.68,3.88,3.19,3.79,4.08,4.07,4.06,3.78,3.73,3179,13.245833,61781.380833,10.753276,1129.293701,-208.877304,2.17924451204055,1.76145724953387,2.49535009178419,4.89748,801.339844,163.3367,150.888672,1175.754517,-13.148817,"LATERAL"
283,17,9,41.402,5244.58,0.543241,0.608694,0.299842,0.494446,-0.91392,0.36302,-0.08121,5241.36,-0.436001,-0.432183,0.460722,-0.640981,-0.14737,0.92261,-0.18696,2.4,2.45,2.45,2.96,3.03,2.96,2.67,3.88,3.2,3.79,4.08,4.07,4.06,3.78,3.73,3185,13.270833,61781.405833,10.753276,1129.293701,-208.877304,2.17924451204055,1.76145724953387,2.49535009178419,4.972294,801.392822,163.279358,150.888672,1175.754517,-13.148817,"LATERAL"
284,17,9,41.408,5244.6,0.543299,0.608655,0.299723,0.494501,-0.91239,0.36347,-0.07985,5241.38,-0.438365,-0.430289,0.462173,-0.639597,-0.15934,0.9477,-0.1871,2.4,2.45,2.45,2.97,3.03,2.96,2.67,3.88,3.2,3.78,4.08,4.07,4.07,3.78,3.73,3186,13.275,61781.41,10.753276,1129.293701,-208.877304,2.17924451204055,1.76145724953387,2.49535009178419,4.981371,801.411987,163.268707,150.888672,1175.754517,-13.148817,"LATERAL"
285,17,9,41.44,5244.62,0.543314,0.608619,0.299589,0.49461,-0.91129,0.36462,-0.07919,5241.4,-0.440484,-0.42877,0.463584,-0.638138,-0.13318,0.93944,-0.18593,2.4,2.45,2.45,2.98,3.04,2.95,2.66,3.87,3.21,3.77,4.08,4.07,4.06,3.77,3.73,3194,13.308333,61781.443333,10.753276,1129.293701,-208.877304,2.17924451204055,1.76145724953387,2.49535009178419,5.081757,801.491333,163.209015,150.888672,1175.754517,-13.148817,"LATERAL"
286,17,9,41.463,5244.64,0.543329,0.608571,0.299459,0.494732,-0.91129,0.36618,-0.08046,5241.42,-0.442725,-0.427124,0.464575,-0.636969,-0.12734,0.94139,-0.17777,2.39,2.46,2.45,2.98,3.05,2.96,2.65,3.87,3.21,3.77,4.08,4.07,4.06,3.77,3.74,3199,13.329167,61781.464167,10.753276,1129.293701,-208.877304,2.17924451204055,1.76145724953387,2.49535009178419,5.14673,801.528015,163.187927,150.888672,1175.754517,-13.148817,"LATERAL"
287,17,9,41.468,5244.66,0.54334,0.608529,0.299353,0.494835,-0.91098,0.36342,-0.08226,5241.44,-0.445065,-0.42556,0.465378,-0.635798,-0.12699,0.93033,-0.18579,2.39,2.46,2.45,2.99,3.05,2.96,2.64,3.87,3.21,3.76,4.08,4.07,4.06,3.77,3.74,3200,13.333333,61781.468333,10.753276,1129.293701,-208.877304,2.17924451204055,1.76145724953387,2.49535009178419,5.163332,801.534973,163.190979,150.888672,1175.754517,-13.148817,"LATERAL"
288,17,9,41.501,5244.68,0.54335,0.608466,0.299249,0.494965,-0.91375,0.36433,-0.08231,5241.46,-0.44703,-0.424374,0.466221,-0.634593,-0.12385,0.92756,-0.19774,2.39,2.46,2.45,3,3.06,2.96,2.64,3.87,3.22,3.75,4.08,4.06,4.06,3.77,3.74,3208,13.366667,61781.501667,10.753276,1129.293701,-208.877304,2.17924451204055,1.76145724953387,2.49535009178419,5.233036,801.587036,163.201324,150.888672,1175.754517,-13.148817,"LATERAL"
289,17,9,41.507,5244.7,0.54336,0.608454,0.299142,0.495034,-0.91418,0.36607,-0.08365,5241.48,-0.4489,-0.423312,0.467061,-0.633364,-0.10892,0.93549,-0.1845,2.39,2.46,2.45,3,3.06,2.95,2.63,3.87,3.22,3.75,4.08,4.06,4.06,3.77,3.74,3210,13.375,61781.51,10.753276,1129.293701,-208.877304,2.17924451204055,1.76145724953387,2.49535009178419,5.250926,801.607788,163.196121,150.888672,1175.754517,-13.148817,"LATERAL"
290,17,9,41.54,5244.72,0.543347,0.608403,0.29909,0.49514,-0.91159,0.36501,-0.08294,5241.5,-0.450353,-0.421986,0.46807,-0.632472,-0.16535,0.93781,-0.1789,2.39,2.46,2.44,3.01,3.07,2.95,2.62,3.87,3.22,3.74,4.08,4.06,4.06,3.77,3.75,3218,13.408333,61781.543333,10.753276,1129.293701,-208.877304,2.17924451204055,1.76145724953387,2.49535009178419,5.293083,801.65448,163.165054,150.888672,1175.754517,-13.148817,"LATERAL"
291,17,9,41.56,5244.74,0.543345,0.608343,0.299078,0.495224,-0.91139,0.36647,-0.08576,5241.52,-0.452854,-0.421208,0.468341,-0.631002,0.00724,0.91122,-0.1604,2.39,2.46,2.44,3.02,3.07,2.95,2.61,3.87,3.23,3.73,4.08,4.06,4.06,3.77,3.75,3222,13.425,61781.56,10.753276,1129.293701,-208.877304,2.17924451204055,1.76145724953387,2.49535009178419,5.307315,801.671997,163.155945,150.888672,1175.754517,-13.148817,"LATERAL"
292,17,9,41.568,5244.76,0.54336,0.608286,0.299056,0.495291,-0.90939,0.36185,-0.08487,5241.54,-0.455225,-0.42074,0.4689,-0.629191,-0.12519,0.95909,-0.17074,2.38,2.46,2.44,3.02,3.08,2.95,2.6,3.87,3.23,3.72,4.08,4.06,4.06,3.76,3.75,3224,13.433333,61781.568333,10.753276,1129.293701,-208.877304,2.17924451204055,1.76145724953387,2.49535009178419,5.311383,801.679626,163.155594,150.888672,1175.754517,-13.148817,"LATERAL"
