Sample,Hour,Minute,Sec,Stamp,Quat1,Quat2,Quat3,Quat4,AccX,AccY,AccZ,Stamp2,Quat2_1,Quat2_2,Quat2_3,Quat2_4,Acc2_X,Acc2_Y,Acc2_Z,A0,A1,A2,A3,A4,A5,A6,A7,A8,A9,A10,A11,A12,A13,A14,Frame,Time,realTime,BrazoX,BrazoY,BrazoZ,angBrazoX,angBrazoY,angBrazoZ,EspaldaX,EspaldaY,EspaldaZ,refX,refY,refZ,type
2,17,7,44.13,5127.2,0.327629,0.675239,0.043231,0.659426,-0.90752,0.37244,-0.08683,5123.98,0.1292,-0.711483,0.18921,-0.664303,-0.98186,0.06328,0.07994,2.4,2.5,2.46,2.93,2.98,2.97,2.92,3.88,2.98,3.94,4.02,3.78,3.9,3.87,3.69,1888,7.866667,61664.132667,53.378155,936.538391,-194.967728,1.77137641398686,2.49329909066574,2.17731436005666,-1.337372,798.981628,163.165848,112.287582,1172.224609,-26.430637,"LATERAL"
3,17,7,44.143,5127.22,0.327687,0.675209,0.043317,0.659422,-0.91059,0.37073,-0.08627,5124,0.128831,-0.711565,0.189392,-0.664236,-0.98202,0.06288,0.07589,2.4,2.5,2.46,2.93,2.98,2.97,2.92,3.88,2.98,3.94,4.02,3.79,3.9,3.87,3.69,1891,7.879167,61664.145167,53.36927,936.588013,-194.966461,1.77147591757663,2.49310414415205,2.17747321921854,-1.359392,798.966492,163.164932,112.309074,1172.245605,-26.386356,"LATERAL"
4,17,7,44.149,5127.24,0.327779,0.675146,0.043412,0.659435,-0.90951,0.36769,-0.08578,5124.02,0.128425,-0.711621,0.189638,-0.664184,-0.98064,0.05917,0.076,2.4,2.5,2.46,2.93,2.98,2.97,2.92,3.88,2.98,3.94,4.02,3.78,3.89,3.87,3.69,1892,7.883333,61664.149333,53.362526,936.601807,-194.961609,1.7715077358991,2.49308231219033,2.17748238592576,-1.364164,798.960571,163.165298,112.309074,1172.245605,-26.386356,"LATERAL"
5,17,7,44.155,5127.26,0.327508,0.675113,0.043852,0.659574,-0.90941,0.36438,-0.08847,5124.04,0.128072,-0.711695,0.189967,-0.664079,-0.97728,0.05762,0.07588,2.4,2.5,2.46,2.93,2.98,2.97,2.92,3.88,2.98,3.94,4.02,3.78,3.9,3.87,3.7,1894,7.891667,61664.157667,53.355782,936.615662,-194.956757,1.771520456898,2.49296191808122,2.17760080879239,-1.368936,798.954651,163.165665,112.308662,1172.248535,-26.345171,"LATERAL"
6,17,7,44.165,5127.28,0.327491,0.675151,0.043817,0.659545,-0.91035,0.36292,-0.09092,5124.06,0.127872,-0.711754,0.190322,-0.663952,-0.98024,0.05634,0.07675,2.4,2.5,2.46,2.93,2.98,2.97,2.92,3.88,2.98,3.94,4.02,3.78,3.9,3.87,3.69,1896,7.9,61664.166,53.329185,936.6474,-194.937561,1.77165088775557,2.49285263563727,2.17765870266176,-1.371723,798.942017,163.174942,112.320068,1172.261597,-26.311308,"LATERAL"
7,17,7,44.17,5127.3,0.327162,0.675209,0.04406,0.659634,-0.91033,0.36462,-0.09164,5124.08,0.127581,-0.711788,0.19067,-0.663872,-0.98242,0.06032,0.08229,2.4,2.5,2.46,2.93,2.98,2.97,2.92,3.88,2.98,3.94,4.02,3.78,3.9,3.87,3.69,1897,7.904167,61664.170167,53.299519,936.670105,-194.912491,1.77177296369692,2.49273779523676,2.1777257680519,-1.373971,798.929749,163.18898,112.326294,1172.265869,-26.268457,"LATERAL"
8,17,7,44.175,5127.32,0.326979,0.675292,0.043896,0.65965,-0.91082,0.36509,-0.09145,5124.1,0.127304,-0.711891,0.190837,-0.663766,-0.98089,0.06217,0.08712,2.4,2.5,2.46,2.93,2.98,2.97,2.92,3.88,2.98,3.94,4.02,3.78,3.9,3.87,3.69,1899,7.9125,61664.1785,53.267056,936.698364,-194.877487,1.77188906497598,2.49265790562906,2.17775938413366,-1.374962,798.91864,163.193329,112.32785,1172.281372,-26.224201,"LATERAL"
9,17,7,44.183,5127.34,0.326788,0.675384,0.043715,0.659663,-0.91185,0.36848,-0.08618,5124.12,0.127115,-0.711886,0.191079,-0.663739,-0.97637,0.06095,0.0926,2.4,2.5,2.46,2.93,2.98,2.97,2.92,3.88,2.98,3.94,4.02,3.78,3.9,3.87,3.69,1901,7.920833,61664.186833,53.243843,936.734375,-194.836563,1.77198084617554,2.49260053541142,2.17777999658589,-1.365853,798.906799,163.211868,112.329544,1172.300415,-26.183079,"LATERAL"
10,17,7,44.189,5127.36,0.326546,0.675456,0.043752,0.659706,-0.9093,0.37073,-0.08665,5124.14,0.126921,-0.711945,0.191263,-0.66366,-0.98152,0.05743,0.08854,2.4,2.5,2.46,2.93,2.98,2.97,2.92,3.88,2.98,3.94,4.02,3.78,3.9,3.87,3.69,1902,7.925,61664.191,53.243843,936.734375,-194.836563,1.77198084617554,2.49260053541142,2.17777999658589,-1.365853,798.906799,163.211868,112.329544,1172.300415,-26.183079,"LATERAL"
11,17,7,44.203,5127.38,0.326477,0.675525,0.043639,0.659678,-0.90876,0.37244,-0.08444,5124.16,0.126801,-0.71208,0.191174,-0.663563,-0.98706,0.05486,0.08257,2.4,2.5,2.46,2.93,2.98,2.97,2.92,3.88,2.98,3.94,4.02,3.78,3.9,3.87,3.69,1905,7.9375,61664.2035,53.220028,936.768677,-194.786285,1.77205869076485,2.4925441553026,2.17780540313986,-1.357109,798.897461,163.222855,112.326981,1172.319458,-26.130342,"LATERAL"
12,17,7,44.21,5127.4,0.326282,0.6757,0.043816,0.659583,-0.90782,0.37587,-0.08153,5124.18,0.126551,-0.712209,0.191108,-0.663491,-0.99015,0.05634,0.07485,2.4,2.5,2.46,2.93,2.98,2.97,2.92,3.89,2.98,3.94,4.02,3.79,3.9,3.87,3.69,1907,7.945833,61664.211833,53.187237,936.8479,-194.68158,1.77215490123691,2.49250868118654,2.17780163093125,-1.340433,798.885193,163.25589,112.314491,1172.362183,-26.048147,"LATERAL"
13,17,7,44.256,5127.42,0.326281,0.675761,0.04376,0.659525,-0.90751,0.3739,-0.0816,5124.2,0.126716,-0.712129,0.190941,-0.663594,-0.99046,0.05488,0.07378,2.4,2.5,2.46,2.93,2.98,2.97,2.92,3.88,2.98,3.94,4.02,3.79,3.9,3.87,3.69,1918,7.991667,61664.257667,53.192104,937.089539,-194.418533,1.7719895161569,2.49219365642569,2.17819452906773,-1.286206,798.863403,163.355606,112.272087,1172.550049,-25.687893,"LATERAL"
14,17,7,44.261,5127.44,0.326344,0.675786,0.043756,0.659468,-0.91028,0.37343,-0.08137,5124.22,0.126707,-0.712099,0.190963,-0.663622,-0.9857,0.05919,0.07577,2.4,2.5,2.46,2.93,2.98,2.97,2.92,3.89,2.98,3.94,4.02,3.78,3.9,3.87,3.69,1919,7.995833,61664.261833,53.191528,937.12262,-194.374161,1.7719901284475,2.49212724985016,2.17826251700875,-1.27745,798.866394,163.378555,112.274208,1172.581299,-25.61982,"LATERAL"
15,17,7,44.281,5127.46,0.326269,0.67585,0.044014,0.659422,-0.90965,0.37284,-0.08306,5124.24,0.126779,-0.712068,0.191044,-0.663617,-0.97749,0.06149,0.07903,2.4,2.5,2.46,2.93,2.98,2.97,2.92,3.88,2.98,3.94,4.02,3.79,3.9,3.87,3.69,1924,8.016667,61664.282667,53.223221,937.158936,-194.278214,1.77187787527493,2.49208759582415,2.17835015161024,-1.251347,798.864929,163.428024,112.275635,1172.619507,-25.496161,"LATERAL"
16,17,7,44.286,5127.48,0.326368,0.675845,0.044078,0.659375,-0.9112,0.37151,-0.08418,5124.26,0.127092,-0.712023,0.190965,-0.663629,-0.97327,0.06036,0.08055,2.39,2.5,2.46,2.93,2.98,2.97,2.92,3.88,2.98,3.94,4.02,3.78,3.9,3.87,3.69,1925,8.020833,61664.286833,53.233006,937.169189,-194.229446,1.77188112359087,2.49207831376749,2.17835833365696,-1.240441,798.867371,163.453384,112.287849,1172.634033,-25.441154,"LATERAL"
17,17,7,44.338,5127.5,0.326305,0.675841,0.044332,0.659392,-0.91023,0.37061,-0.08531,5124.28,0.127197,-0.711997,0.191074,-0.663605,-0.97593,0.05978,0.08095,2.39,2.5,2.46,2.93,2.99,2.97,2.92,3.88,2.98,3.94,4.02,3.78,3.9,3.87,3.69,1938,8.075,61664.341,53.317066,937.232239,-193.935013,1.77168518463179,2.49191272621666,2.17861025439691,-1.198113,798.843384,163.611237,112.316246,1172.671875,-25.082411,"LATERAL"
18,17,7,44.343,5127.52,0.326422,0.675834,0.044463,0.659333,-0.90965,0.37062,-0.08559,5124.3,0.127409,-0.711983,0.191095,-0.663574,-0.97811,0.06374,0.08261,2.39,2.5,2.46,2.93,2.98,2.97,2.92,3.88,2.98,3.94,4.02,3.79,3.9,3.87,3.69,1939,8.079167,61664.345167,53.326786,937.228699,-193.917587,1.77166727008683,2.49192105035641,2.17860917282497,-1.198148,798.840393,163.623962,112.321259,1172.671753,-25.063864,"LATERAL"
19,17,7,44.361,5127.54,0.326574,0.675817,0.044609,0.659265,-0.91005,0.3702,-0.08306,5124.32,0.127514,-0.711903,0.191195,-0.66361,-0.97981,0.06571,0.08027,2.39,2.5,2.46,2.93,2.99,2.97,2.92,3.89,2.98,3.94,4.02,3.78,3.9,3.87,3.69,1943,8.095833,61664.361833,53.358402,937.240356,-193.86235,1.77153625196204,2.49189963336601,2.17868580145259,-1.199072,798.824341,163.646454,112.315247,1172.680908,-24.989075,"LATERAL"
20,17,7,44.386,5127.56,0.326596,0.675789,0.044905,0.659263,-0.9092,0.36937,-0.08454,5124.34,0.127665,-0.711807,0.191345,-0.663641,-0.98246,0.06538,0.07961,2.39,2.5,2.46,2.93,2.98,2.97,2.92,3.88,2.98,3.94,4.02,3.78,3.9,3.87,3.69,1949,8.120833,61664.386833,53.426525,937.2677,-193.792786,1.77127995735311,2.49190704816806,2.17878493092983,-1.214587,798.811707,163.659897,112.309296,1172.710327,-24.894915,"LATERAL"
21,17,7,44.39,5127.58,0.326726,0.675757,0.045033,0.659223,-0.90998,0.36925,-0.08585,5124.36,0.12791,-0.711709,0.191465,-0.663665,-0.98413,0.06477,0.082,2.39,2.5,2.46,2.93,2.98,2.97,2.92,3.88,2.98,3.94,4.02,3.78,3.9,3.87,3.69,1950,8.125,61664.391,53.43824,937.274719,-193.786438,1.77124746251277,2.49191921598138,2.17878595443546,-1.217752,798.811096,163.662582,112.309296,1172.710327,-24.894915,"LATERAL"
22,17,7,44.439,5127.6,0.32646,0.67585,0.045575,0.659222,-0.91073,0.36555,-0.08559,5124.38,0.128075,-0.711658,0.191618,-0.663643,-0.98404,0.06477,0.08252,2.39,2.5,2.46,2.93,2.98,2.97,2.92,3.88,2.98,3.94,4.02,3.78,3.9,3.87,3.69,1962,8.175,61664.441,53.556114,937.372131,-193.774857,1.7709512536966,2.49171497272174,2.17911894829553,-1.246514,798.813599,163.644516,112.344917,1172.785522,-24.792253,"LATERAL"
23,17,7,44.444,5127.62,0.326525,0.675859,0.045583,0.65918,-0.91272,0.3623,-0.08595,5124.4,0.128098,-0.711733,0.191667,-0.663545,-0.98209,0.06817,0.08271,2.39,2.5,2.46,2.93,2.98,2.97,2.92,3.88,2.98,3.94,4.02,3.78,3.9,3.87,3.69,1963,8.179167,61664.445167,53.567547,937.386658,-193.783356,1.77092795109713,2.49167426204529,2.17917044893589,-1.249599,798.810425,163.643723,112.349831,1172.793701,-24.787584,"LATERAL"
24,17,7,44.463,5127.64,0.326574,0.675894,0.045559,0.659121,-0.91302,0.36497,-0.08459,5124.42,0.128147,-0.711711,0.191774,-0.663527,-0.97831,0.06771,0.08599,2.39,2.5,2.46,2.93,2.98,2.97,2.92,3.88,2.98,3.94,4.02,3.78,3.9,3.88,3.69,1968,8.2,61664.466,53.576797,937.407043,-193.794373,1.77092724191993,2.49164994540171,2.17919572217327,-1.254047,798.812622,163.622894,112.359505,1172.812256,-24.790659,"LATERAL"
25,17,7,44.468,5127.66,0.326255,0.675943,0.045956,0.659201,-0.91342,0.36619,-0.08344,5124.44,0.128148,-0.711693,0.191857,-0.663522,-0.97583,0.06426,0.08752,2.39,2.5,2.46,2.93,2.98,2.97,2.92,3.88,2.99,3.94,4.02,3.78,3.9,3.87,3.69,1969,8.204167,61664.470167,53.576797,937.407043,-193.794373,1.77092724191993,2.49164994540171,2.17919572217327,-1.254047,798.812622,163.622894,112.359505,1172.812256,-24.790659,"LATERAL"
26,17,7,44.502,5127.68,0.326354,0.675949,0.045946,0.659147,-0.9118,0.3663,-0.08541,5124.46,0.127999,-0.711892,0.19171,-0.66338,-0.97456,0.0643,0.08922,2.39,2.5,2.46,2.93,2.99,2.97,2.92,3.88,2.99,3.94,4.02,3.78,3.9,3.87,3.69,1977,8.2375,61664.5035,53.507431,937.398193,-193.816238,1.77120434923645,2.49168495004834,2.1790445659033,-1.245092,798.823181,163.601944,112.369621,1172.806396,-24.851551,"LATERAL"
27,17,7,44.507,5127.7,0.326158,0.676071,0.046318,0.659094,-0.91108,0.36665,-0.08105,5124.48,0.127843,-0.711897,0.191691,-0.66341,-0.97566,0.0628,0.08754,2.39,2.5,2.46,2.93,2.99,2.97,2.92,3.88,2.98,3.94,4.01,3.78,3.9,3.87,3.69,1978,8.241667,61664.507667,53.477287,937.381714,-193.826721,1.77129520444634,2.49169445111107,2.17899699987843,-1.240314,798.816162,163.592941,112.366142,1172.792969,-24.872606,"LATERAL"
28,17,7,44.557,5127.72,0.32625,0.67607,0.046276,0.659051,-0.91408,0.36715,-0.08316,5124.5,0.127663,-0.711914,0.191545,-0.663469,-0.97902,0.06243,0.085,2.39,2.5,2.46,2.93,2.99,2.97,2.92,3.88,2.99,3.94,4.02,3.79,3.9,3.87,3.69,1990,8.291667,61664.557667,53.246132,937.304504,-193.832718,1.77203847571089,2.49190793390259,2.17846769565173,-1.204863,798.832214,163.537308,112.348679,1172.747314,-25.011829,"LATERAL"
29,17,7,44.562,5127.74,0.326406,0.676048,0.046234,0.659,-0.91197,0.36869,-0.08121,5124.52,0.127434,-0.711895,0.191445,-0.663562,-0.98029,0.06363,0.08473,2.39,2.5,2.46,2.93,2.99,2.97,2.92,3.88,2.99,3.94,4.02,3.78,3.9,3.87,3.69,1992,8.3,61664.566,53.201828,937.291321,-193.828568,1.77224236304847,2.49192460081976,2.17836533462904,-1.200277,798.839294,163.531036,112.361252,1172.728394,-25.038778,"LATERAL"
30,17,7,44.582,5127.76,0.326481,0.676046,0.046339,0.658957,-0.90925,0.36843,-0.08261,5124.54,0.127155,-0.711957,0.191342,-0.663579,-0.98101,0.06053,0.08334,2.39,2.5,2.46,2.93,2.99,2.97,2.92,3.88,2.99,3.94,4.02,3.78,3.9,3.87,3.69,1996,8.316667,61664.582667,53.13179,937.282532,-193.838974,1.77255893424898,2.49188893004839,2.17826948415121,-1.210465,798.845215,163.512329,112.38179,1172.70874,-25.075668,"LATERAL"
31,17,7,44.586,5127.78,0.326654,0.676051,0.046308,0.658869,-0.91063,0.36787,-0.08327,5124.56,0.126939,-0.712067,0.191149,-0.663558,-0.98003,0.0614,0.07955,2.39,2.5,2.46,2.93,2.99,2.97,2.92,3.88,2.99,3.94,4.02,3.78,3.9,3.87,3.69,1997,8.320833,61664.586833,53.121662,937.273926,-193.842438,1.77258638481404,2.49188870024681,2.17825822031608,-1.211502,798.843994,163.508194,112.38179,1172.70874,-25.075668,"LATERAL"
32,17,7,44.621,5127.8,0.326662,0.676075,0.046508,0.658826,-0.91176,0.36931,-0.08384,5124.58,0.126693,-0.712197,0.191071,-0.663488,-0.98258,0.05863,0.07427,2.39,2.5,2.46,2.93,2.99,2.97,2.92,3.88,2.99,3.94,4.02,3.78,3.9,3.87,3.69,2006,8.358333,61664.624333,53.105007,937.199036,-193.920227,1.77304645243639,2.49190047179545,2.17805314630924,-1.269017,798.830566,163.447815,112.499115,1172.638794,-25.201214,"LATERAL"
33,17,7,44.626,5127.82,0.326833,0.676049,0.046498,0.658768,-0.9137,0.36722,-0.08241,5124.6,0.127023,-0.712243,0.19089,-0.663428,-0.97764,0.05741,0.07556,2.39,2.5,2.46,2.93,2.99,2.97,2.92,3.88,2.99,3.94,4.02,3.78,3.9,3.87,3.7,2007,8.3625,61664.6285,53.105007,937.199036,-193.920227,1.77304645243639,2.49190047179545,2.17805314630924,-1.269017,798.830566,163.447815,112.499115,1172.638794,-25.201214,"LATERAL"
34,17,7,44.677,5127.84,0.326989,0.676047,0.046492,0.658694,-0.90819,0.36768,-0.08836,5124.62,0.127189,-0.712301,0.191004,-0.663301,-0.97855,0.06025,0.07971,2.39,2.5,2.46,2.93,2.99,2.97,2.92,3.88,2.99,3.94,4.02,3.78,3.9,3.87,3.69,2019,8.4125,61664.6785,53.114845,937.03064,-194.015259,1.77368170005164,2.4921034004614,2.17757731751252,-1.358657,798.858276,163.38298,112.686554,1172.481445,-25.42988,"LATERAL"
35,17,7,44.682,5127.86,0.326854,0.675929,0.046562,0.658877,-0.9071,0.36541,-0.08843,5124.64,0.12743,-0.712373,0.191183,-0.663126,-0.97785,0.06102,0.08676,2.39,2.5,2.46,2.93,2.99,2.97,2.92,3.88,2.99,3.94,4.02,3.78,3.9,3.87,3.69,2020,8.416667,61664.682667,53.104919,937.020142,-194.013046,1.7737096450266,2.4921215862829,2.17754684393,-1.356344,798.858276,163.383179,112.686554,1172.481445,-25.42988,"LATERAL"
36,17,7,44.701,5127.88,0.326921,0.67592,0.046427,0.658862,-0.91305,0.36605,-0.08756,5124.66,0.127578,-0.712561,0.191068,-0.662928,-0.98608,0.05882,0.08695,2.39,2.5,2.46,2.93,2.99,2.97,2.92,3.88,2.99,3.94,4.02,3.78,3.9,3.87,3.69,2025,8.4375,61664.7035,53.067257,936.986328,-194.000687,1.7740584795934,2.49217994862647,2.17733970512367,-1.343787,798.866089,163.385696,112.747665,1172.449219,-25.474167,"LATERAL"
37,17,7,44.706,5127.9,0.326865,0.675985,0.046499,0.658818,-0.913,0.36806,-0.0824,5124.68,0.127506,-0.712767,0.190888,-0.662772,-0.99015,0.05865,0.08433,2.39,2.5,2.46,2.93,2.99,2.97,2.92,3.88,2.99,3.94,4.02,3.78,3.9,3.87,3.69,2026,8.441667,61664.707667,53.055668,936.9729,-193.994019,1.77416451254497,2.49222468666766,2.17724892509019,-1.337775,798.864441,163.393951,112.766205,1172.441528,-25.491169,"LATERAL"
38,17,7,44.741,5127.92,0.326917,0.67595,0.046333,0.65884,-0.90888,0.37306,-0.07987,5124.7,0.127509,-0.712888,0.190669,-0.662705,-0.9913,0.06198,0.08184,2.39,2.5,2.46,2.93,2.99,2.97,2.92,3.88,2.99,3.94,4.02,3.78,3.9,3.87,3.69,2034,8.475,61664.741,53.000881,936.994629,-193.977295,1.77432321017104,2.49222451222134,2.17718204791507,-1.293117,798.883911,163.391708,112.75592,1172.45752,-25.494774,"LATERAL"
39,17,7,44.747,5127.94,0.32698,0.675904,0.046194,0.658866,-0.90705,0.37542,-0.0816,5124.72,0.127519,-0.712966,0.190571,-0.662647,-0.9887,0.06247,0.08517,2.39,2.5,2.46,2.93,2.99,2.97,2.92,3.88,2.99,3.94,4.02,3.78,3.9,3.87,3.69,2036,8.483333,61664.749333,52.98875,937.004089,-193.986359,1.77429127755583,2.4922073592887,2.17721318546221,-1.284236,798.888367,163.392014,112.734253,1172.462769,-25.497093,"LATERAL"
40,17,7,44.797,5127.96,0.32693,0.675958,0.046298,0.658828,-0.90876,0.37184,-0.0786,5124.74,0.127574,-0.71298,0.190546,-0.662629,-0.98458,0.06414,0.08742,2.39,2.5,2.46,2.93,2.99,2.97,2.92,3.88,2.99,3.94,4.02,3.79,3.9,3.87,3.69,2048,8.533333,61664.799333,52.764931,937.021362,-193.997986,1.77445057728488,2.49219550645611,2.17715802322333,-1.180272,798.882874,163.470291,112.561325,1172.496704,-25.508682,"LATERAL"
41,17,7,44.802,5127.98,0.326967,0.675914,0.046191,0.658862,-0.91249,0.36815,-0.08189,5124.76,0.127541,-0.713062,0.19041,-0.662585,-0.97881,0.06445,0.09,2.39,2.5,2.46,2.93,2.99,2.97,2.92,3.88,2.99,3.94,4.02,3.78,3.9,3.87,3.69,2049,8.5375,61664.8035,52.731232,937.014832,-193.992996,1.7744526835168,2.4922080870997,2.17714419355617,-1.172746,798.882507,163.482376,112.527153,1172.488159,-25.510103,"LATERAL"
42,17,7,44.822,5128,0.326794,0.675929,0.046295,0.658925,-0.91162,0.36822,-0.08308,5124.78,0.127421,-0.713,0.190309,-0.662705,-0.97314,0.06036,0.09338,2.39,2.5,2.46,2.93,2.99,2.97,2.92,3.88,2.99,3.94,4.02,3.78,3.9,3.87,3.69,2054,8.558333,61664.824333,52.532593,936.974792,-193.952362,1.77480631002746,2.4922996024042,2.17690035517375,-1.143519,798.89093,163.543427,112.428726,1172.455933,-25.534826,"LATERAL"
43,17,7,44.826,5128.02,0.326851,0.675927,0.046229,0.658904,-0.90756,0.37174,-0.0836,5124.8,0.127286,-0.713025,0.190025,-0.662785,-0.9752,0.05687,0.09087,2.39,2.5,2.46,2.93,2.99,2.97,2.92,3.89,2.99,3.94,4.02,3.78,3.9,3.87,3.69,2055,8.5625,61664.8285,52.532593,936.974792,-193.952362,1.77480631002746,2.4922996024042,2.17690035517375,-1.143519,798.89093,163.543427,112.428726,1172.455933,-25.534826,"LATERAL"
44,17,7,44.877,5128.04,0.326966,0.67593,0.046214,0.658845,-0.90789,0.37287,-0.08435,5124.82,0.127084,-0.712983,0.189848,-0.66292,-0.9786,0.06011,0.08878,2.39,2.5,2.46,2.93,2.99,2.97,2.92,3.88,2.99,3.94,4.02,3.78,3.9,3.87,3.69,2067,8.6125,61664.8785,52.065536,936.908447,-193.888626,1.77607439470912,2.49224181417801,2.17642078995811,-1.082269,798.90033,163.65007,112.32328,1172.35791,-25.602892,"LATERAL"
45,17,7,44.882,5128.06,0.327044,0.675897,0.046361,0.65883,-0.90958,0.37162,-0.08646,5124.84,0.126816,-0.712976,0.189656,-0.663033,-0.98108,0.06571,0.08304,2.39,2.5,2.46,2.93,2.99,2.97,2.92,3.88,2.99,3.94,4.02,3.78,3.89,3.87,3.69,2068,8.616667,61664.882667,52.013924,936.911865,-193.887558,1.77634432358338,2.49213770183692,2.17641276086501,-1.080384,798.898193,163.65564,112.349174,1172.340332,-25.60548,"LATERAL"
46,17,7,44.901,5128.08,0.327258,0.675879,0.046452,0.658736,-0.91105,0.36949,-0.08358,5124.86,0.126652,-0.712964,0.189568,-0.663103,-0.98467,0.06508,0.07577,2.39,2.5,2.46,2.93,2.99,2.97,2.92,3.88,2.99,3.94,4.02,3.78,3.9,3.87,3.69,2073,8.6375,61664.9035,51.955372,936.955383,-193.910614,1.77692253635386,2.49178925839511,2.17652419016207,-1.069662,798.888306,163.645386,112.457184,1172.318604,-25.603558,"LATERAL"
47,17,7,44.907,5128.1,0.327408,0.675814,0.046622,0.658715,-0.91033,0.36682,-0.08507,5124.88,0.126421,-0.713127,0.189552,-0.662976,-0.98394,0.05906,0.07071,2.39,2.5,2.46,2.93,2.99,2.97,2.92,3.88,2.99,3.94,4.02,3.78,3.9,3.87,3.69,2074,8.641667,61664.907667,51.955372,936.955383,-193.910614,1.77692253635386,2.49178925839511,2.17652419016207,-1.069662,798.888306,163.645386,112.457184,1172.318604,-25.603558,"LATERAL"
48,17,7,44.957,5128.12,0.327659,0.675762,0.046682,0.658639,-0.91096,0.36684,-0.08379,5124.9,0.126433,-0.713215,0.189696,-0.662838,-0.9873,0.06048,0.06707,2.39,2.49,2.45,2.93,2.99,2.97,2.92,3.88,2.99,3.94,4.02,3.78,3.9,3.87,3.69,2086,8.691667,61664.957667,52.187168,937.178406,-194.136139,1.77722125426915,2.49068060559546,2.17753722655836,-1.083988,798.900879,163.442734,112.778824,1172.356445,-25.573492,"LATERAL"
49,17,7,44.962,5128.14,0.3279,0.675692,0.046734,0.658588,-0.91023,0.36464,-0.08294,5124.92,0.126326,-0.713402,0.18988,-0.662605,-0.98811,0.061,0.06892,2.39,2.49,2.46,2.93,2.99,2.97,2.92,3.88,2.99,3.94,4.02,3.78,3.9,3.87,3.69,2088,8.7,61664.966,52.249657,937.21637,-194.172638,1.77712073453996,2.49056576463263,2.17769843627516,-1.088828,798.911194,163.417572,112.811081,1172.369385,-25.574034,"LATERAL"
50,17,7,44.981,5128.16,0.327805,0.67567,0.046973,0.658641,-0.91284,0.35944,-0.08163,5124.94,0.126313,-0.713503,0.190137,-0.662425,-0.98403,0.06267,0.07336,2.39,2.49,2.46,2.93,2.99,2.97,2.92,3.88,2.98,3.94,4.02,3.78,3.9,3.87,3.69,2092,8.716667,61664.982667,52.395042,937.279724,-194.270554,1.77683564299777,2.49037918629088,2.17801234118375,-1.085181,798.922119,163.362549,112.872398,1172.393188,-25.600126,"LATERAL"
51,17,7,44.986,5128.18,0.327865,0.675641,0.04688,0.658647,-0.91628,0.36056,-0.08353,5124.96,0.126367,-0.713531,0.19037,-0.662317,-0.97785,0.06339,0.08254,2.39,2.49,2.45,2.93,2.99,2.97,2.92,3.88,2.98,3.94,4.02,3.78,3.9,3.87,3.69,2093,8.720833,61664.986833,52.421314,937.287292,-194.294159,1.7767433820943,2.49032773450256,2.17810469551166,-1.087402,798.925781,163.350876,112.872398,1172.393188,-25.600126,"LATERAL"
52,17,7,45.038,5128.2,0.327762,0.675661,0.046911,0.658676,-0.91384,0.36665,-0.0833,5124.98,0.126355,-0.713476,0.190595,-0.662315,-0.97545,0.06004,0.09378,2.39,2.49,2.45,2.93,2.99,2.97,2.92,3.88,2.99,3.94,4.02,3.78,3.9,3.88,3.7,2106,8.775,61665.041,52.483105,937.206604,-194.51828,1.77591986737769,2.49060336365145,2.17817225285663,-1.067997,798.949524,163.329681,112.700043,1172.378174,-25.79616,"LATERAL"
53,17,7,45.043,5128.22,0.327714,0.67565,0.046738,0.658723,-0.91023,0.37062,-0.08423,5125,0.126227,-0.713583,0.190592,-0.662224,-0.97074,0.06081,0.10313,2.39,2.49,2.45,2.93,2.99,2.97,2.92,3.88,2.98,3.94,4.02,3.78,3.9,3.87,3.7,2107,8.779167,61665.045167,52.437725,937.15741,-194.527405,1.77589928207417,2.49076515164472,2.178014595647,-1.066147,798.952942,163.352478,112.648567,1172.357422,-25.843946,"LATERAL"
54,17,7,45.061,5128.24,0.327673,0.675646,0.046562,0.65876,-0.9108,0.37374,-0.08534,5125.02,0.126206,-0.713459,0.190687,-0.662335,-0.96976,0.06177,0.10573,2.39,2.49,2.45,2.93,2.99,2.97,2.92,3.88,2.99,3.94,4.02,3.78,3.9,3.87,3.7,2111,8.795833,61665.061833,52.28447,937.042542,-194.526688,1.77608112776446,2.49099868148327,2.1776969451851,-1.037411,798.951477,163.40184,112.5569,1172.319336,-25.8953,"LATERAL"
55,17,7,45.066,5128.26,0.327606,0.675692,0.046497,0.658751,-0.90852,0.3727,-0.08552,5125.04,0.126073,-0.713392,0.190641,-0.662446,-0.97625,0.05992,0.09943,2.39,2.49,2.45,2.93,2.99,2.97,2.92,3.88,2.99,3.94,4.02,3.78,3.9,3.87,3.69,2112,8.8,61665.066,52.239582,937.011963,-194.525101,1.77606958785864,2.49111592443942,2.17758124781492,-1.029833,798.948669,163.414993,112.503685,1172.290283,-25.935764,"LATERAL"
56,17,7,45.117,5128.28,0.327669,0.675707,0.046365,0.658713,-0.90529,0.37523,-0.08541,5125.06,0.125962,-0.713372,0.190354,-0.66257,-0.9865,0.05636,0.08789,2.39,2.49,2.45,2.93,2.99,2.97,2.92,3.88,2.99,3.94,4.02,3.78,3.9,3.87,3.7,2125,8.854167,61665.120167,51.806789,936.817139,-194.453949,1.77635366961504,2.49170291964839,2.17685617454322,-0.957034,798.960449,163.52626,112.151939,1172.195923,-26.044041,"LATERAL"
57,17,7,45.122,5128.3,0.327716,0.675726,0.04634,0.658672,-0.90616,0.37605,-0.08398,5125.08,0.125805,-0.71335,0.19012,-0.662691,-0.99322,0.05383,0.08022,2.39,2.49,2.45,2.93,2.99,2.97,2.92,3.88,2.99,3.94,4.02,3.78,3.9,3.87,3.7,2126,8.858333,61665.124333,51.787914,936.817383,-194.451477,1.77641729836374,2.49169153880861,2.17684072499228,-0.955632,798.96582,163.528091,112.151939,1172.195923,-26.044041,"LATERAL"
58,17,7,45.14,5128.32,0.327934,0.675699,0.046285,0.658596,-0.90808,0.3728,-0.08407,5125.1,0.12604,-0.71324,0.189895,-0.66283,-0.99152,0.05751,0.07947,2.39,2.49,2.45,2.93,2.99,2.97,2.92,3.88,2.98,3.94,4.02,3.78,3.9,3.87,3.7,2130,8.875,61665.141,51.730717,936.82074,-194.446716,1.77635133052926,2.49170962110254,2.1768502771686,-0.936872,798.976624,163.534515,112.074554,1172.198242,-26.040016,"LATERAL"
59,17,7,45.164,5128.34,0.328186,0.67565,0.046281,0.65852,-0.91056,0.36923,-0.08456,5125.12,0.126134,-0.713238,0.189789,-0.662844,-0.98884,0.06102,0.08048,2.39,2.49,2.46,2.93,2.99,2.97,2.92,3.88,2.99,3.94,4.02,3.78,3.9,3.87,3.69,2136,8.9,61665.166,51.61171,936.854126,-194.421295,1.77659507427251,2.49159852034486,2.17686051608903,-0.918061,798.983276,163.544586,112.028481,1172.221069,-26.00544,"LATERAL"
60,17,7,45.169,5128.36,0.328304,0.67562,0.04648,0.658478,-0.91166,0.36616,-0.08266,5125.14,0.126181,-0.713309,0.189706,-0.662782,-0.98383,0.06377,0.08289,2.39,2.49,2.45,2.93,2.99,2.97,2.92,3.88,2.99,3.94,4.02,3.79,3.9,3.87,3.7,2137,8.904167,61665.170167,51.61171,936.854126,-194.421295,1.77659507427251,2.49159852034486,2.17686051608903,-0.918061,798.983276,163.544586,112.028481,1172.221069,-26.00544,"LATERAL"
61,17,7,45.219,5128.38,0.328564,0.675561,0.046546,0.658405,-0.9127,0.36539,-0.08339,5125.16,0.126152,-0.713419,0.189563,-0.662711,-0.9838,0.06424,0.08029,2.39,2.49,2.45,2.93,2.99,2.97,2.92,3.88,2.99,3.94,4.02,3.78,3.9,3.87,3.69,2149,8.954167,61665.220167,51.576164,937.059204,-194.520386,1.77666418538677,2.49095296945379,2.17749524696819,-0.961197,798.962097,163.514099,112.016594,1172.324829,-25.940126,"LATERAL"
62,17,7,45.223,5128.4,0.328727,0.675514,0.04673,0.658358,-0.91282,0.3656,-0.084,5125.18,0.125941,-0.713611,0.189418,-0.662585,-0.98594,0.06717,0.07579,2.39,2.49,2.45,2.93,2.99,2.97,2.92,3.88,2.98,3.94,4.02,3.78,3.9,3.87,3.69,2150,8.958333,61665.224333,51.605568,937.101074,-194.567047,1.77653869207544,2.49081561964204,2.17769015438018,-0.977075,798.956543,163.507889,112.009285,1172.340576,-25.940538,"LATERAL"
63,17,7,45.245,5128.42,0.329009,0.67543,0.046825,0.658296,-0.91026,0.3652,-0.08597,5125.2,0.125919,-0.713604,0.189542,-0.662562,-0.98655,0.06881,0.07605,2.39,2.49,2.46,2.93,2.99,2.97,2.92,3.88,2.98,3.94,4.02,3.78,3.9,3.87,3.69,2155,8.979167,61665.245167,51.68232,937.224304,-194.716049,1.77605196324625,2.49043600587091,2.17828817238582,-1.046923,798.979187,163.473175,111.949272,1172.411865,-25.932795,"LATERAL"
64,17,7,45.25,5128.44,0.329295,0.675354,0.046933,0.658225,-0.90721,0.36546,-0.08754,5125.22,0.125865,-0.713591,0.189753,-0.662525,-0.98443,0.06974,0.08011,2.39,2.49,2.46,2.93,2.99,2.97,2.92,3.88,2.98,3.94,4.02,3.78,3.9,3.87,3.7,2157,8.9875,61665.2535,51.705681,937.252747,-194.7491,1.77590867294409,2.49036179847759,2.17842548191384,-1.045461,798.973816,163.467224,111.930588,1172.424805,-25.934092,"LATERAL"
65,17,7,45.3,5128.46,0.329382,0.675251,0.047088,0.658276,-0.90969,0.36646,-0.08974,5125.24,0.125783,-0.713475,0.190004,-0.662594,-0.98406,0.07326,0.08507,2.39,2.49,2.46,2.93,2.99,2.97,2.92,3.88,2.98,3.94,4.02,3.78,3.9,3.87,3.7,2169,9.0375,61665.3035,51.820675,937.634644,-195.292404,1.77424597926594,2.48940419954454,2.18011425309183,-1.16438,799.016663,163.369644,111.569672,1172.656616,-26.052073,"LATERAL"
66,17,7,45.305,5128.48,0.329555,0.675205,0.047093,0.658236,-0.91225,0.36663,-0.08937,5125.26,0.125459,-0.713307,0.190198,-0.662781,-0.98455,0.0767,0.08752,2.39,2.49,2.46,2.93,2.99,2.97,2.92,3.88,2.98,3.94,4.02,3.78,3.9,3.87,3.7,2170,9.041667,61665.307667,51.82468,937.668213,-195.340439,1.77423214489621,2.48921714876176,2.18031233145327,-1.174933,799.025757,163.364822,111.569672,1172.656616,-26.052073,"LATERAL"
67,17,7,45.325,5128.5,0.329519,0.675144,0.047224,0.658306,-0.91284,0.36782,-0.08789,5125.28,0.125025,-0.713087,0.190284,-0.663074,-0.98469,0.06899,0.0873,2.39,2.49,2.46,2.93,2.99,2.97,2.92,3.88,2.98,3.94,4.02,3.78,3.9,3.87,3.7,2175,9.0625,61665.3285,51.838085,937.875122,-195.578506,1.77346534347777,2.48868145176457,2.18118536659588,-1.192179,799.068604,163.346298,111.357086,1172.751953,-26.089615,"LATERAL"
68,17,7,45.33,5128.52,0.329694,0.675093,0.04715,0.658277,-0.91228,0.36783,-0.08501,5125.3,0.124643,-0.71281,0.190438,-0.663399,-0.98758,0.06716,0.08639,2.39,2.49,2.46,2.93,2.99,2.97,2.92,3.88,2.98,3.94,4.02,3.78,3.9,3.87,3.7,2176,9.066667,61665.332667,51.84267,937.91748,-195.626083,1.77345458047296,2.48847791550059,2.18139899140067,-1.189608,799.077759,163.345459,111.357086,1172.751953,-26.089615,"LATERAL"
69,17,7,45.381,5128.54,0.32989,0.675028,0.047044,0.658253,-0.90976,0.3689,-0.08268,5125.32,0.124256,-0.71245,0.190732,-0.663775,-0.98744,0.0614,0.08515,2.39,2.49,2.46,2.93,2.99,2.96,2.92,3.88,2.98,3.94,4.02,3.78,3.9,3.87,3.7,2188,9.116667,61665.382667,51.861591,938.390747,-196.074326,1.77190566698765,2.48732711924504,2.183228135316,-1.137547,799.170654,163.391357,110.919174,1172.985962,-26.118437,"LATERAL"
70,17,7,45.386,5128.56,0.330041,0.674971,0.047062,0.658235,-0.91002,0.37308,-0.08411,5125.34,0.123833,-0.712089,0.190973,-0.664172,-0.98408,0.06726,0.07966,2.39,2.49,2.46,2.93,2.99,2.96,2.92,3.88,2.98,3.94,4.02,3.78,3.9,3.87,3.7,2189,9.120833,61665.386833,51.874363,938.424805,-196.112305,1.77175961900304,2.48726852107063,2.18334904059579,-1.128488,799.169983,163.398834,110.889679,1173.009644,-26.127047,"LATERAL"
71,17,7,45.403,5128.58,0.330289,0.674879,0.046956,0.658211,-0.91251,0.37373,-0.08153,5125.36,0.123395,-0.711678,0.191129,-0.664648,-0.98321,0.06623,0.07249,2.39,2.49,2.46,2.93,2.99,2.96,2.92,3.88,2.98,3.94,4.02,3.78,3.9,3.87,3.7,2193,9.1375,61665.4035,51.951027,938.558044,-196.267929,1.77094553914388,2.48701144400584,2.18395067253595,-1.111489,799.1922,163.437576,110.732735,1173.105591,-26.130661,"LATERAL"
72,17,7,45.422,5128.6,0.330557,0.674832,0.046997,0.658123,-0.91134,0.37662,-0.08257,5125.38,0.123036,-0.711228,0.191372,-0.665127,-0.98441,0.06264,0.06953,2.39,2.49,2.46,2.93,2.99,2.96,2.92,3.88,2.98,3.94,4.02,3.78,3.9,3.87,3.7,2198,9.158333,61665.424333,52.074482,938.740784,-196.468414,1.77003759488954,2.48648013925122,2.18487080300687,-1.086183,799.224426,163.461716,110.595024,1173.200439,-26.103077,"LATERAL"
73,17,7,45.428,5128.62,0.330881,0.674745,0.046975,0.65805,-0.90761,0.37558,-0.08294,5125.4,0.123011,-0.710728,0.191741,-0.66556,-0.98465,0.05826,0.07556,2.39,2.49,2.46,2.93,2.99,2.96,2.92,3.88,2.98,3.94,4.02,3.78,3.9,3.87,3.7,2199,9.1625,61665.4285,52.097313,938.777832,-196.507462,1.76973821878888,2.48643689582154,2.18503840185485,-1.082136,799.233154,163.462845,110.533257,1173.238403,-26.095299,"LATERAL"
74,17,7,45.461,5128.64,0.331206,0.674653,0.047031,0.657977,-0.90452,0.37415,-0.08616,5125.42,0.1231,-0.710243,0.192212,-0.665925,-0.98314,0.06428,0.08282,2.39,2.49,2.46,2.93,2.99,2.96,2.92,3.88,2.98,3.94,4.02,3.78,3.9,3.87,3.7,2207,9.195833,61665.461833,52.244091,939.119812,-196.791061,1.76857569466953,2.48550637791443,2.18646927895434,-1.05492,799.28717,163.452805,110.340576,1173.40271,-26.040567,"LATERAL"
75,17,7,45.486,5128.66,0.33137,0.674601,0.047214,0.657935,-0.90921,0.37177,-0.08688,5125.44,0.123123,-0.70982,0.192574,-0.666267,-0.98077,0.06761,0.08409,2.39,2.49,2.46,2.93,2.99,2.96,2.92,3.88,2.98,3.94,4.02,3.78,3.9,3.87,3.7,2213,9.220833,61665.486833,52.251915,939.334534,-196.95874,1.76791852567201,2.4850347986773,2.18722074866209,-1.04292,799.317322,163.428726,110.158173,1173.533569,-26.026016,"LATERAL"
76,17,7,45.49,5128.68,0.331621,0.674505,0.047246,0.657904,-0.91345,0.3683,-0.08484,5125.46,0.123027,-0.709521,0.192654,-0.666579,-0.97658,0.07127,0.08468,2.39,2.49,2.46,2.93,2.99,2.96,2.92,3.87,2.98,3.94,4.02,3.78,3.9,3.87,3.7,2214,9.225,61665.491,52.245373,939.36438,-196.982285,1.76766939853932,2.48508352029816,2.1872721795359,-1.04214,799.323242,163.424026,110.081551,1173.580933,-26.030785,"LATERAL"
77,17,7,45.539,5128.7,0.331712,0.674428,0.047422,0.657925,-0.91235,0.36708,-0.08697,5125.48,0.122916,-0.70917,0.192679,-0.666967,-0.97304,0.06733,0.08618,2.39,2.49,2.46,2.93,2.99,2.96,2.92,3.87,2.98,3.94,4.02,3.78,3.9,3.87,3.7,2226,9.275,61665.541,52.07373,939.618896,-197.220093,1.76696145182477,2.48475288590306,2.18789832381266,-0.975827,799.378845,163.401108,109.69857,1173.751221,-26.135504,"LATERAL"
78,17,7,45.544,5128.72,0.331982,0.674342,0.047495,0.657871,-0.90974,0.36625,-0.08878,5125.5,0.122863,-0.708958,0.192499,-0.667253,-0.9737,0.06567,0.08787,2.39,2.49,2.46,2.93,2.99,2.96,2.92,3.87,2.98,3.94,4.02,3.78,3.9,3.87,3.7,2227,9.279167,61665.545167,52.007904,939.650574,-197.250809,1.7670418920487,2.48469805530359,2.18792191463357,-0.955559,799.381348,163.403259,109.655907,1173.772339,-26.161015,"LATERAL"
79,17,7,45.564,5128.74,0.332202,0.674296,0.047557,0.657803,-0.90845,0.36898,-0.0867,5125.52,0.122801,-0.708697,0.192419,-0.667565,-0.97506,0.07202,0.08723,2.39,2.49,2.46,2.93,2.99,2.96,2.92,3.88,2.98,3.94,4.02,3.78,3.9,3.87,3.7,2232,9.3,61665.566,51.855488,939.710815,-197.307297,1.7673572868156,2.48454372557566,2.18795214965223,-0.932072,799.396667,163.414261,109.594757,1173.803955,-26.210768,"LATERAL"
80,17,7,45.584,5128.76,0.332332,0.674277,0.047759,0.657743,-0.91091,0.37076,-0.08599,5125.54,0.122571,-0.708614,0.192183,-0.667764,-0.97236,0.07778,0.08337,2.39,2.49,2.46,2.93,2.99,2.96,2.92,3.88,2.98,3.94,4.02,3.78,3.9,3.87,3.7,2237,9.320833,61665.586833,51.643642,939.829102,-197.403946,1.76808304878193,2.48422285455063,2.18798591932511,-0.914223,799.441956,163.407288,109.589699,1173.849609,-26.310007,"LATERAL"
81,17,7,45.589,5128.78,0.3326,0.674241,0.047831,0.657639,-0.9086,0.37319,-0.08597,5125.56,0.122269,-0.708688,0.19186,-0.667833,-0.97564,0.0693,0.07481,2.39,2.49,2.46,2.93,2.99,2.96,2.92,3.88,2.98,3.94,4.02,3.78,3.9,3.87,3.7,2238,9.325,61665.591,51.616169,939.855835,-197.421844,1.76819599296992,2.48414659181041,2.18801806983542,-0.913013,799.448547,163.403412,109.5933,1173.855835,-26.325075,"LATERAL"
82,17,7,45.637,5128.8,0.332844,0.674186,0.047956,0.657562,-0.90383,0.37423,-0.08379,5125.58,0.121848,-0.708788,0.191626,-0.667871,-0.97707,0.06602,0.06719,2.39,2.49,2.45,2.93,2.99,2.96,2.92,3.88,2.98,3.94,4.02,3.78,3.9,3.87,3.7,2250,9.375,61665.641,51.415176,940.051636,-197.73053,1.76906385542782,2.48356077312432,2.18826417358025,-0.924511,799.505432,163.263184,109.6408,1173.933472,-26.583433,"LATERAL"
83,17,7,45.642,5128.82,0.333206,0.674087,0.048024,0.657476,-0.90887,0.37251,-0.08787,5125.6,0.121516,-0.708839,0.191413,-0.667939,-0.97639,0.06799,0.06691,2.39,2.49,2.45,2.93,2.99,2.96,2.92,3.88,2.98,3.94,4.02,3.78,3.9,3.87,3.7,2251,9.379167,61665.645167,51.38599,940.07666,-197.784378,1.76920611224604,2.4834824542027,2.18828623762905,-0.924384,799.509094,163.233521,109.653267,1173.946045,-26.630713,"LATERAL"
84,17,7,45.662,5128.84,0.333549,0.673993,0.048036,0.657397,-0.91265,0.36764,-0.08939,5125.62,0.121143,-0.708916,0.191291,-0.66796,-0.97909,0.07631,0.06728,2.39,2.49,2.45,2.93,2.99,2.96,2.92,3.88,2.98,3.94,4.02,3.78,3.9,3.87,3.7,2256,9.4,61665.666,51.337669,940.139282,-197.888489,1.76962768785322,2.48326339807198,2.18833804108194,-0.939893,799.520996,163.173965,109.724876,1173.960083,-26.728907,"LATERAL"
85,17,7,45.667,5128.86,0.333677,0.673903,0.048197,0.657413,-0.91289,0.36412,-0.08859,5125.64,0.120698,-0.709024,0.191144,-0.667967,-0.97402,0.07579,0.07033,2.39,2.49,2.45,2.93,2.99,2.96,2.92,3.88,2.98,3.94,4.02,3.78,3.9,3.87,3.7,2257,9.404167,61665.670167,51.323994,940.166565,-197.936279,1.76992022291472,2.48316736762179,2.18831641461711,-0.948527,799.521118,163.13887,109.794281,1173.963257,-26.786844,"LATERAL"
86,17,7,45.701,5128.88,0.333982,0.673838,0.04818,0.657325,-0.9107,0.3668,-0.08969,5125.66,0.120117,-0.709263,0.190933,-0.667879,-0.97124,0.07043,0.06968,2.39,2.49,2.45,2.93,2.99,2.96,2.92,3.88,2.98,3.94,4.02,3.78,3.9,3.87,3.7,2265,9.4375,61665.7035,51.343044,940.244324,-198.133652,1.77077347443141,2.48276086519257,2.18838201810598,-0.983093,799.521118,163.000565,110.056839,1173.952759,-26.979185,"LATERAL"
87,17,7,45.726,5128.9,0.334011,0.673846,0.048316,0.657292,-0.90834,0.37062,-0.08883,5125.68,0.11954,-0.70958,0.190867,-0.667665,-0.97703,0.06567,0.0643,2.39,2.49,2.45,2.93,2.99,2.96,2.92,3.88,2.98,3.94,4.02,3.78,3.9,3.87,3.7,2271,9.4625,61665.7285,51.488152,940.291321,-198.33754,1.77093737620766,2.48245056194686,2.18863257175128,-1.027125,799.536499,162.88089,110.253387,1173.959351,-27.111158,"LATERAL"
88,17,7,45.731,5128.92,0.33416,0.673801,0.048166,0.657274,-0.90635,0.37191,-0.08609,5125.7,0.119339,-0.70975,0.190957,-0.667494,-0.98642,0.06548,0.06304,2.39,2.49,2.45,2.93,2.99,2.96,2.92,3.88,2.98,3.94,4.02,3.78,3.9,3.87,3.7,2272,9.466667,61665.732667,51.539936,940.296753,-198.397598,1.77087830072025,2.4824074824493,2.18870111428646,-1.037999,799.53241,162.847885,110.290985,1173.968628,-27.146168,"LATERAL"
89,17,7,45.78,5128.94,0.334252,0.673764,0.047946,0.657282,-0.90812,0.3687,-0.08813,5125.72,0.11914,-0.709833,0.19114,-0.667389,-0.99224,0.07057,0.06866,2.4,2.49,2.45,2.93,2.99,2.96,2.92,3.88,2.97,3.94,4.02,3.78,3.9,3.87,3.7,2284,9.516667,61665.782667,51.673851,940.313416,-198.648727,1.77018139908317,2.48249996653899,2.18889327660656,-1.046084,799.564148,162.753342,110.230095,1174.030396,-27.33021,"LATERAL"
90,17,7,45.785,5128.96,0.334133,0.673762,0.047826,0.657353,-0.91057,0.36841,-0.08934,5125.74,0.119009,-0.709798,0.191285,-0.667408,-0.97806,0.07533,0.07889,2.4,2.49,2.45,2.93,2.99,2.96,2.92,3.88,2.98,3.94,4.02,3.78,3.9,3.87,3.7,2285,9.520833,61665.786833,51.645733,940.312134,-198.660583,1.77006674335938,2.48259760593105,2.18884030680123,-1.040544,799.569702,162.752747,110.167061,1174.040039,-27.359777,"LATERAL"
91,17,7,45.805,5128.98,0.334156,0.673779,0.047594,0.65734,-0.90941,0.37354,-0.0884,5125.76,0.118859,-0.709763,0.19106,-0.667537,-0.98326,0.07124,0.08892,2.4,2.49,2.46,2.93,2.99,2.96,2.92,3.88,2.98,3.94,4.02,3.78,3.9,3.87,3.7,2290,9.541667,61665.807667,51.499119,940.295349,-198.656662,1.77009635409447,2.48284232414546,2.1885772705076,-1.0098,799.584534,162.791016,110.027489,1174.061401,-27.42374,"LATERAL"
92,17,7,45.81,5129,0.334126,0.67386,0.047442,0.657283,-0.90778,0.3784,-0.0881,5125.78,0.11869,-0.709594,0.190818,-0.667816,-0.98169,0.06911,0.09375,2.4,2.49,2.45,2.93,2.99,2.96,2.92,3.88,2.97,3.94,4.02,3.78,3.9,3.87,3.7,2291,9.545833,61665.811833,51.463531,940.293945,-198.652969,1.76995515989985,2.48297191755286,2.18850243164099,-0.99917,799.58728,162.797455,109.947151,1174.068115,-27.44931,"LATERAL"
93,17,7,45.859,5129.02,0.33415,0.673888,0.047258,0.657256,-0.90449,0.38075,-0.08641,5125.8,0.118476,-0.709571,0.19038,-0.668003,-0.98125,0.07066,0.09277,2.4,2.49,2.45,2.93,2.99,2.96,2.92,3.88,2.97,3.95,4.02,3.78,3.9,3.87,3.7,2303,9.595833,61665.861833,50.833935,940.269836,-198.508911,1.77061885441448,2.48339294803517,2.18779764368423,-0.899578,799.653076,163.022614,109.500717,1174.08374,-27.501768,"LATERAL"
94,17,7,45.864,5129.04,0.334261,0.673879,0.047129,0.657219,-0.90522,0.38086,-0.08552,5125.82,0.118308,-0.709448,0.190047,-0.668258,-0.98417,0.07139,0.08548,2.4,2.49,2.45,2.93,2.99,2.96,2.92,3.88,2.98,3.94,4.02,3.78,3.9,3.87,3.7,2304,9.6,61665.866,50.77755,940.273132,-198.489471,1.7704900623871,2.48346802080289,2.18777374212156,-0.891273,799.659851,163.042648,109.405304,1174.09375,-27.493105,"LATERAL"
95,17,7,45.884,5129.06,0.334412,0.673895,0.047187,0.65712,-0.90688,0.38157,-0.08676,5125.84,0.11822,-0.70932,0.189779,-0.668486,-0.9865,0.06731,0.07731,2.4,2.49,2.45,2.93,2.99,2.96,2.92,3.88,2.98,3.94,4.02,3.78,3.9,3.87,3.7,2309,9.620833,61665.886833,50.513222,940.28009,-198.371582,1.77069002561071,2.48365276142947,2.18750186659835,-0.862016,799.681396,163.150711,109.196861,1174.125977,-27.446697,"LATERAL"
96,17,7,45.903,5129.08,0.334713,0.673862,0.047223,0.656998,-0.90547,0.38074,-0.08752,5125.86,0.11834,-0.709151,0.189447,-0.668738,-0.98476,0.06717,0.06726,2.4,2.49,2.45,2.93,2.99,2.96,2.92,3.88,2.97,3.94,4.02,3.78,3.9,3.87,3.7,2313,9.6375,61665.9035,50.350586,940.298279,-198.283279,1.77083983443672,2.48376787827423,2.18732199211196,-0.843477,799.693481,163.210632,109.074692,1174.15332,-27.410275,"LATERAL"
97,17,7,45.908,5129.1,0.334998,0.673809,0.047387,0.656897,-0.90522,0.38009,-0.0874,5125.88,0.11829,-0.709018,0.189208,-0.668955,-0.98047,0.06663,0.06278,2.4,2.49,2.45,2.93,2.99,2.96,2.92,3.88,2.97,3.94,4.02,3.78,3.9,3.87,3.7,2315,9.645833,61665.911833,50.286888,940.311401,-198.243866,1.77093260753895,2.48380717094045,2.18724338602076,-0.839669,799.695374,163.237045,109.035789,1174.165283,-27.395849,"LATERAL"
98,17,7,45.958,5129.12,0.335432,0.673721,0.047619,0.656748,-0.90625,0.37603,-0.08857,5125.9,0.118512,-0.708849,0.188944,-0.66917,-0.98138,0.06866,0.06372,2.4,2.49,2.45,2.93,2.99,2.96,2.92,3.88,2.98,3.94,4.02,3.78,3.9,3.87,3.7,2327,9.695833,61665.961833,50.079475,940.380615,-198.071442,1.77178230941467,2.48372409666795,2.18697691128299,-0.834943,799.640076,163.257431,109.061813,1174.169434,-27.32424,"LATERAL"
99,17,7,45.964,5129.14,0.335857,0.673621,0.047816,0.65662,-0.90822,0.37158,-0.09098,5125.92,0.118648,-0.708803,0.188872,-0.669215,-0.97454,0.07458,0.06655,2.4,2.49,2.45,2.93,2.99,2.96,2.92,3.88,2.98,3.94,4.02,3.78,3.9,3.87,3.7,2328,9.7,61665.966,50.079967,940.38208,-198.067657,1.77199201020834,2.48361461457838,2.18700220660295,-0.836701,799.632996,163.247574,109.123291,1174.152222,-27.313551,"LATERAL"
100,17,7,45.981,5129.16,0.33615,0.673601,0.048162,0.656464,-0.90846,0.36921,-0.08648,5125.94,0.118694,-0.70892,0.188874,-0.669082,-0.96901,0.07942,0.06431,2.4,2.49,2.45,2.93,2.99,2.96,2.92,3.88,2.98,3.94,4.02,3.78,3.9,3.87,3.7,2332,9.716667,61665.982667,50.12875,940.384888,-198.079224,1.77239365560072,2.48341251988185,2.18704263606586,-0.882343,799.601929,163.185577,109.288872,1174.120605,-27.313841,"LATERAL"
101,17,7,46.005,5129.18,0.336544,0.673514,0.04838,0.656336,-0.90792,0.36551,-0.08662,5125.96,0.118708,-0.709019,0.189012,-0.668936,-0.96971,0.0791,0.05833,2.4,2.49,2.45,2.93,2.99,2.96,2.92,3.88,2.98,3.94,4.02,3.78,3.9,3.87,3.7,2338,9.741667,61666.007667,50.31464,940.386475,-198.174469,1.7724073750962,2.48315476869559,2.1873013654614,-0.97613,799.54657,163.07373,109.48101,1174.084595,-27.340137,"LATERAL"
102,17,7,46.009,5129.2,0.33661,0.67351,0.048769,0.656278,-0.9067,0.36579,-0.08561,5125.98,0.118547,-0.709335,0.189147,-0.668591,-0.97616,0.07452,0.05019,2.4,2.49,2.45,2.93,2.99,2.96,2.92,3.88,2.98,3.94,4.02,3.78,3.9,3.87,3.7,2339,9.745833,61666.011833,50.419914,940.383972,-198.225586,1.77235361980034,2.48306372389928,2.18741711982163,-1.016319,799.51709,163.026672,109.569992,1174.062744,-27.365461,"LATERAL"
103,17,7,46.057,5129.22,0.336761,0.673468,0.048787,0.656242,-0.91045,0.36719,-0.09004,5126,0.118658,-0.709448,0.18951,-0.668348,-0.9807,0.07141,0.05423,2.4,2.49,2.45,2.93,2.99,2.96,2.92,3.88,2.98,3.94,4.02,3.78,3.9,3.87,3.7,2350,9.791667,61666.057667,51.095654,940.330017,-198.526855,1.77121805364062,2.48254675478474,2.18841803540742,-1.282928,799.373047,162.785767,109.924316,1173.944458,-27.404177,"LATERAL"
104,17,7,46.062,5129.24,0.336801,0.673494,0.048685,0.656202,-0.91225,0.36108,-0.09356,5126.02,0.118846,-0.709529,0.189992,-0.668092,-0.98172,0.07497,0.06644,2.4,2.49,2.45,2.93,2.99,2.96,2.92,3.88,2.98,3.94,4.02,3.78,3.9,3.87,3.7,2352,9.8,61666.066,51.207024,940.318176,-198.563965,1.77124871863209,2.48235363878579,2.18860338718136,-1.324813,799.346436,162.759109,110.044022,1173.895508,-27.39822,"LATERAL"
105,17,7,46.084,5129.26,0.336471,0.673556,0.048633,0.656311,-0.91026,0.36222,-0.09513,5126.04,0.119059,-0.709533,0.190503,-0.667905,-0.98221,0.07574,0.07546,2.4,2.49,2.45,2.93,2.99,2.96,2.92,3.88,2.98,3.94,4.02,3.78,3.9,3.87,3.7,2357,9.820833,61666.086833,51.416153,940.319092,-198.610657,1.77124153433708,2.48182439372308,2.18914901392215,-1.404048,799.283081,162.71405,110.251793,1173.803467,-27.311407,"LATERAL"
106,17,7,46.089,5129.28,0.336286,0.673719,0.048328,0.656261,-0.90653,0.37013,-0.09141,5126.06,0.119211,-0.709643,0.190851,-0.667662,-0.98493,0.06691,0.09011,2.4,2.49,2.45,2.93,2.99,2.96,2.92,3.88,2.98,3.94,4.02,3.78,3.9,3.87,3.7,2358,9.825,61666.091,51.4403,940.33252,-198.613144,1.77116775470131,2.4818112206986,2.18919299089106,-1.416407,799.269409,162.713226,110.251793,1173.803467,-27.311407,"LATERAL"
107,17,7,46.141,5129.3,0.335989,0.673912,0.04806,0.656235,-0.90304,0.37652,-0.09054,5126.08,0.1192,-0.709737,0.191172,-0.667471,-0.98948,0.07073,0.09949,2.4,2.49,2.45,2.93,2.99,2.96,2.92,3.88,2.98,3.94,4.02,3.78,3.9,3.87,3.7,2370,9.875,61666.141,51.41256,940.567932,-198.506729,1.77298081158875,2.48002520412395,2.19027271089611,-1.508204,799.147827,162.753601,110.746033,1173.703491,-26.953625,"LATERAL"
108,17,7,46.146,5129.32,0.335732,0.674066,0.047701,0.656235,-0.90456,0.37976,-0.08456,5126.1,0.118939,-0.710026,0.191333,-0.667164,-0.99236,0.08198,0.09621,2.4,2.49,2.45,2.93,2.99,2.96,2.92,3.88,2.97,3.94,4.02,3.78,3.9,3.87,3.7,2372,9.883333,61666.149333,51.379311,940.695679,-198.470718,1.7734952683787,2.47948901413583,2.19060822880556,-1.507905,799.135193,162.774353,110.859665,1173.725952,-26.842743,"LATERAL"
109,17,7,46.164,5129.34,0.335512,0.674198,0.047409,0.656232,-0.90554,0.38187,-0.08491,5126.12,0.11859,-0.710288,0.191532,-0.66689,-0.99637,0.08292,0.08564,2.4,2.49,2.45,2.93,2.99,2.96,2.92,3.88,2.98,3.94,4.02,3.78,3.9,3.87,3.7,2376,9.9,61666.166,51.347672,940.919617,-198.418823,1.77422932464945,2.47870530853843,2.19110531241473,-1.492399,799.128052,162.795929,111.034424,1173.783936,-26.688671,"LATERAL"
110,17,7,46.183,5129.36,0.335322,0.674438,0.047337,0.656088,-0.90247,0.38511,-0.08292,5126.14,0.118228,-0.710505,0.19175,-0.666661,-1.00324,0.0754,0.07842,2.4,2.49,2.45,2.93,2.99,2.96,2.92,3.88,2.98,3.94,4.02,3.78,3.9,3.87,3.7,2381,9.920833,61666.186833,51.39328,941.275818,-198.369202,1.77504841120546,2.47739827554652,2.19210250647448,-1.484498,799.135742,162.810883,111.305977,1173.859497,-26.431068,"LATERAL"
111,17,7,46.188,5129.38,0.335201,0.674582,0.047202,0.656012,-0.90545,0.38211,-0.08167,5126.16,0.118076,-0.710677,0.191976,-0.666439,-0.99866,0.0746,0.07295,2.4,2.49,2.45,2.93,2.99,2.96,2.92,3.88,2.98,3.94,4.02,3.78,3.9,3.87,3.7,2382,9.925,61666.191,51.39328,941.275818,-198.369202,1.77504841120546,2.47739827554652,2.19210250647448,-1.484498,799.135742,162.810883,111.305977,1173.859497,-26.431068,"LATERAL"
112,17,7,46.24,5129.4,0.334896,0.67484,0.047604,0.655873,-0.91467,0.37983,-0.0805,5126.18,0.117653,-0.71096,0.192314,-0.666115,-0.98525,0.07682,0.0621,2.4,2.49,2.45,2.93,2.99,2.96,2.92,3.88,2.98,3.94,4.02,3.78,3.9,3.87,3.7,2394,9.975,61666.241,52.033379,942.235107,-198.198547,1.77580865446686,2.47410493959049,2.19515978244519,-1.506568,799.13446,162.786392,112.168167,1174.22644,-25.520563,"LATERAL"
113,17,7,46.245,5129.42,0.335009,0.674865,0.047674,0.655785,-0.91378,0.37472,-0.08207,5126.2,0.117268,-0.711138,0.19284,-0.66584,-0.98206,0.07094,0.04921,2.4,2.49,2.45,2.93,2.99,2.96,2.92,3.88,2.98,3.94,4.02,3.78,3.9,3.87,3.7,2395,9.979167,61666.245167,52.13599,942.28595,-198.196655,1.77549737283278,2.47409279858966,2.19530293969612,-1.515847,799.130188,162.783142,112.168167,1174.22644,-25.520563,"LATERAL"
114,17,7,46.263,5129.44,0.335112,0.674849,0.047759,0.655742,-0.9115,0.37306,-0.0809,5126.22,0.116843,-0.711273,0.193614,-0.665547,-0.97191,0.06864,0.04668,2.4,2.49,2.45,2.93,2.99,2.96,2.92,3.88,2.98,3.94,4.02,3.78,3.9,3.87,3.7,2400,10,61666.266,52.731377,942.588318,-198.218567,1.77440516615869,2.47287944630562,2.19700308178823,-1.584637,799.103455,162.774185,112.466179,1174.37854,-25.081827,"LATERAL"
115,17,7,46.268,5129.46,0.334789,0.674872,0.048239,0.655849,-0.90979,0.37334,-0.08679,5126.24,0.116718,-0.711155,0.194718,-0.665373,-0.97091,0.06396,0.05174,2.4,2.49,2.45,2.93,2.98,2.96,2.92,3.88,2.97,3.94,4.02,3.78,3.9,3.87,3.7,2401,10.004167,61666.270167,52.857853,942.643677,-198.220566,1.77401533100472,2.47286769974869,2.19717752443662,-1.602869,799.093567,162.777512,112.466179,1174.37854,-25.081827,"LATERAL"
116,17,7,46.302,5129.48,0.334777,0.674871,0.048302,0.655851,-0.90817,0.36921,-0.08634,5126.26,0.117075,-0.710692,0.196077,-0.665405,-0.9748,0.06735,0.07098,2.4,2.49,2.45,2.93,2.99,2.96,2.92,3.88,2.98,3.94,4.02,3.78,3.9,3.87,3.7,2409,10.0375,61666.3035,53.703922,942.936279,-198.071518,1.7719964230122,2.47167168058995,2.19923786797872,-1.765419,798.96936,162.880005,112.734695,1174.477783,-24.420792,"LATERAL"
117,17,7,46.307,5129.5,0.334464,0.674872,0.048519,0.655994,-0.90927,0.36935,-0.09024,5126.28,0.117558,-0.710096,0.19744,-0.665553,-0.97705,0.06899,0.09715,2.4,2.49,2.45,2.94,2.99,2.96,2.92,3.88,2.98,3.94,4.02,3.78,3.9,3.87,3.7,2410,10.041667,61666.307667,53.786701,942.958679,-198.028427,1.77183965451736,2.47134236186642,2.19963941259556,-1.783836,798.946289,162.902084,112.787666,1174.500854,-24.235918,"LATERAL"
118,17,7,46.36,5129.52,0.334233,0.674962,0.048593,0.656014,-0.9047,0.37143,-0.0923,5126.3,0.117767,-0.709778,0.198256,-0.665613,-0.98036,0.07518,0.11421,2.4,2.49,2.45,2.93,2.98,2.96,2.92,3.88,2.98,3.94,4.02,3.78,3.9,3.87,3.7,2423,10.095833,61666.361833,54.122299,943.381531,-197.14183,1.77098041592325,2.47048676959806,2.20086739851638,-1.926458,798.740784,163.304214,112.850807,1174.67334,-23.126194,"LATERAL"
119,17,7,46.365,5129.54,0.333933,0.675102,0.04863,0.656019,-0.89751,0.37334,-0.09091,5126.32,0.117665,-0.709498,0.198746,-0.665783,-0.98533,0.08139,0.1175,2.4,2.49,2.45,2.93,2.99,2.96,2.92,3.88,2.98,3.94,4.02,3.78,3.9,3.87,3.7,2424,10.1,61666.366,54.114742,943.427856,-197.069504,1.77078023666056,2.47029531239634,2.2011451391264,-1.928012,798.727478,163.33493,112.799263,1174.739502,-22.946192,"LATERAL"
120,17,7,46.386,5129.56,0.333562,0.675221,0.048611,0.656087,-0.8961,0.38173,-0.09091,5126.34,0.117483,-0.709353,0.198988,-0.665898,-0.99241,0.08573,0.10925,2.4,2.49,2.45,2.93,2.99,2.96,2.92,3.88,2.98,3.94,4.02,3.78,3.9,3.87,3.7,2429,10.120833,61666.386833,54.036671,943.618958,-196.786713,1.77029614451679,2.47005746848281,2.20158608618528,-1.942284,798.691406,163.460602,112.581726,1174.889648,-22.556116,"LATERAL"
121,17,7,46.391,5129.58,0.33316,0.675357,0.048583,0.656154,-0.9022,0.38295,-0.0835,5126.36,0.117284,-0.709444,0.1989,-0.665862,-0.9918,0.08976,0.09598,2.4,2.49,2.45,2.93,2.99,2.96,2.92,3.89,2.98,3.94,4.02,3.78,3.9,3.87,3.7,2430,10.125,61666.391,53.99139,943.711609,-196.657089,1.76999374024974,2.4699437878451,2.20182557453189,-1.943998,798.673462,163.518005,112.450027,1174.965942,-22.365942,"LATERAL"
122,17,7,46.44,5129.6,0.332696,0.675516,0.048666,0.656219,-0.91417,0.37871,-0.08003,5126.38,0.117403,-0.709204,0.199036,-0.666056,-0.98329,0.09209,0.08677,2.4,2.49,2.46,2.93,2.99,2.96,2.92,3.88,2.98,3.94,4.03,3.78,3.9,3.87,3.7,2442,10.175,61666.441,53.559799,943.988464,-195.897964,1.76797662631646,2.47012765046036,2.2024548563578,-1.93138,798.551819,163.858032,111.429596,1175.258179,-21.470638,"LATERAL"
123,17,7,46.445,5129.62,0.332423,0.675633,0.048749,0.656231,-0.91689,0.37153,-0.07884,5126.4,0.117639,-0.709012,0.198959,-0.666241,-0.96631,0.08726,0.08662,2.4,2.49,2.45,2.93,2.99,2.96,2.92,3.88,2.98,3.94,4.02,3.78,3.9,3.87,3.7,2443,10.179167,61666.445167,53.559799,943.988464,-195.897964,1.76797662631646,2.47012765046036,2.2024548563578,-1.93138,798.551819,163.858032,111.429596,1175.258179,-21.470638,"LATERAL"
124,17,7,46.464,5129.64,0.332168,0.675779,0.048811,0.656205,-0.91481,0.36691,-0.07806,5126.42,0.117886,-0.708709,0.198836,-0.666557,-0.95949,0.07952,0.0859,2.4,2.49,2.45,2.93,2.99,2.96,2.92,3.88,2.98,3.94,4.02,3.79,3.9,3.87,3.7,2448,10.2,61666.466,53.229412,943.897888,-195.477097,1.76724648784013,2.47094892697043,2.20190932629649,-1.956136,798.47583,164.058624,110.88636,1175.31311,-21.183878,"LATERAL"
125,17,7,46.469,5129.66,0.331897,0.676024,0.049092,0.656069,-0.91141,0.36804,-0.07703,5126.44,0.118157,-0.708367,0.198603,-0.666942,-0.95965,0.07741,0.08819,2.4,2.49,2.45,2.93,2.99,2.96,2.92,3.88,2.98,3.94,4.02,3.78,3.9,3.87,3.7,2449,10.204167,61666.470167,53.165321,943.872253,-195.407837,1.76667013265984,2.47104813176874,2.20203921663375,-1.964914,798.463623,164.096054,110.662041,1175.332886,-21.063154,"LATERAL"
126,17,7,46.501,5129.68,0.331746,0.676229,0.049249,0.655922,-0.90909,0.36795,-0.08153,5126.46,0.118353,-0.708166,0.198165,-0.667251,-0.96716,0.08554,0.09438,2.4,2.49,2.45,2.94,2.99,2.96,2.92,3.88,2.98,3.94,4.02,3.78,3.9,3.87,3.7,2457,10.2375,61666.5035,52.469521,943.699219,-194.864304,1.76634439455854,2.47179473038944,2.20140667889823,-2.007706,798.355713,164.376648,109.87854,1175.323853,-20.650202,"LATERAL"
127,17,7,46.523,5129.7,0.331598,0.676447,0.04958,0.655747,-0.9069,0.36696,-0.0818,5126.48,0.118537,-0.707895,0.197828,-0.667606,-0.97496,0.09373,0.09797,2.4,2.49,2.45,2.94,2.99,2.96,2.92,3.88,2.98,3.94,4.02,3.78,3.9,3.87,3.7,2462,10.258333,61666.524333,51.903572,943.710327,-194.541748,1.76711016779563,2.47186308892737,2.20102972121702,-2.016867,798.305908,164.565796,109.530304,1175.330566,-20.430342,"LATERAL"
128,17,7,46.529,5129.72,0.331714,0.676643,0.049829,0.655468,-0.90805,0.366,-0.0844,5126.5,0.118288,-0.707966,0.197344,-0.667718,-0.97907,0.09668,0.09961,2.4,2.49,2.45,2.94,2.99,2.96,2.92,3.88,2.97,3.94,4.02,3.78,3.9,3.87,3.7,2464,10.266667,61666.532667,51.638569,943.749146,-194.397461,1.76755570528854,2.47181073270019,2.20090402035404,-2.009978,798.284546,164.652008,109.388206,1175.334961,-20.334715,"LATERAL"
129,17,7,46.578,5129.74,0.331936,0.676818,0.05011,0.655152,-0.91082,0.36736,-0.08378,5126.52,0.117843,-0.708105,0.196761,-0.667821,-0.98622,0.09504,0.09675,2.4,2.49,2.45,2.94,2.99,2.96,2.92,3.88,2.97,3.94,4.02,3.78,3.9,3.87,3.7,2475,10.3125,61666.5785,49.979393,943.878418,-193.705612,1.77136076536587,2.47168389892834,2.19948668341289,-1.869523,798.35907,165.065018,108.830574,1175.439453,-19.982466,"LATERAL"
130,17,7,46.583,5129.76,0.332184,0.676978,0.050517,0.65483,-0.91443,0.36714,-0.07874,5126.54,0.117087,-0.70843,0.195985,-0.667838,-0.98047,0.09882,0.09265,2.4,2.49,2.45,2.94,2.99,2.96,2.92,3.88,2.98,3.94,4.02,3.78,3.9,3.87,3.7,2477,10.320833,61666.586833,49.631649,943.883606,-193.594818,1.77235721216264,2.47165675508631,2.19910445742957,-1.820716,798.386108,165.118973,108.773415,1175.44812,-19.956665,"LATERAL"
131,17,7,46.603,5129.78,0.332538,0.677075,0.050857,0.654524,-0.91656,0.37008,-0.07694,5126.56,0.115812,-0.708926,0.194936,-0.667841,-0.96763,0.10679,0.08943,2.4,2.49,2.45,2.94,2.98,2.96,2.92,3.88,2.97,3.94,4.02,3.78,3.9,3.87,3.7,2481,10.3375,61666.6035,48.990128,943.94873,-193.379303,1.77433872751964,2.47138023038494,2.19856628438375,-1.732323,798.455017,165.221954,108.701805,1175.448975,-19.879942,"LATERAL"
132,17,7,46.607,5129.8,0.332897,0.677134,0.051362,0.654241,-0.91725,0.37202,-0.07023,5126.58,0.114316,-0.709567,0.193766,-0.667758,-0.97437,0.10085,0.07621,2.4,2.49,2.45,2.93,2.99,2.96,2.92,3.88,2.98,3.94,4.02,3.78,3.9,3.87,3.7,2482,10.341667,61666.607667,48.990128,943.94873,-193.379303,1.77433872751964,2.47138023038494,2.19856628438375,-1.732323,798.455017,165.221954,108.701805,1175.448975,-19.879942,"LATERAL"
133,17,7,46.658,5129.82,0.333364,0.677055,0.051765,0.654053,-0.92186,0.37169,-0.06585,5126.6,0.112649,-0.710257,0.192627,-0.667638,-0.98378,0.09424,0.0584,2.4,2.49,2.45,2.93,2.99,2.96,2.92,3.88,2.97,3.94,4.02,3.79,3.9,3.87,3.7,2495,10.395833,61666.661833,47.511093,944.48999,-193.080353,1.78070358530279,2.46873812504425,2.1985838406308,-1.635161,798.346863,165.160355,109.062576,1175.503418,-19.577709,"LATERAL"
134,17,7,46.663,5129.84,0.333875,0.676932,0.052159,0.653889,-0.92262,0.37094,-0.06505,5126.62,0.11089,-0.711024,0.191648,-0.667397,-0.98326,0.08517,0.04381,2.4,2.49,2.45,2.93,2.99,2.96,2.92,3.88,2.98,3.94,4.02,3.78,3.9,3.87,3.7,2496,10.4,61666.666,47.511093,944.48999,-193.080353,1.78070358530279,2.46873812504425,2.1985838406308,-1.635161,798.346863,165.160355,109.062576,1175.503418,-19.577709,"LATERAL"
135,17,7,46.683,5129.86,0.334237,0.676832,0.052597,0.653772,-0.91228,0.36082,-0.07247,5126.64,0.109333,-0.71175,0.191056,-0.66705,-0.98087,0.08367,0.03969,2.4,2.49,2.45,2.93,2.98,2.96,2.92,3.88,2.97,3.94,4.02,3.79,3.9,3.87,3.69,2501,10.420833,61666.686833,47.438637,944.737793,-193.255539,1.78180731659025,2.46771377848299,2.19915987794128,-1.696334,798.338745,164.915924,109.3032,1175.541016,-19.631386,"LATERAL"
136,17,7,46.688,5129.88,0.334529,0.676721,0.052744,0.653725,-0.89767,0.34689,-0.07926,5126.66,0.108203,-0.712296,0.190961,-0.666678,-0.96769,0.09086,0.04407,2.4,2.49,2.45,2.93,2.98,2.96,2.91,3.88,2.97,3.94,4.02,3.78,3.9,3.87,3.69,2502,10.425,61666.691,47.450115,944.766541,-193.295197,1.78218681108535,2.46753930869215,2.19917520809196,-1.71507,798.338928,164.871475,109.42408,1175.536865,-19.667936,"LATERAL"
137,17,7,46.74,5129.9,0.333052,0.676369,0.053831,0.654755,-0.9055,0.33955,-0.08487,5126.68,0.107356,-0.712819,0.191245,-0.666175,-0.96856,0.10191,0.05294,2.4,2.49,2.45,2.93,2.98,2.96,2.91,3.88,2.97,3.94,4.02,3.78,3.9,3.87,3.69,2514,10.475,61666.741,47.904633,944.934509,-193.973587,1.7828601981323,2.46606221287054,2.20039899614439,-2.038373,798.329224,164.42897,110.087074,1175.484253,-20.014812,"LATERAL"
138,17,7,46.745,5129.92,0.332972,0.676378,0.053657,0.654801,-0.92714,0.34305,-0.08398,5126.7,0.106899,-0.713189,0.191819,-0.665688,-0.96669,0.09331,0.06177,2.4,2.49,2.45,2.93,2.98,2.96,2.91,3.88,2.97,3.94,4.02,3.78,3.9,3.87,3.69,2515,10.479167,61666.745167,47.94817,944.925598,-194.029785,1.78300984091035,2.46605639411365,2.20034024247841,-2.058053,798.328613,164.405762,110.16954,1175.458374,-20.097031,"LATERAL"
139,17,7,46.763,5129.94,0.332787,0.676418,0.053336,0.65488,-0.93178,0.35465,-0.07947,5126.72,0.106596,-0.71342,0.192377,-0.665327,-0.9824,0.08482,0.07279,2.4,2.49,2.45,2.93,2.98,2.96,2.91,3.88,2.97,3.94,4.02,3.78,3.9,3.87,3.69,2520,10.5,61666.766,48.068981,944.875977,-194.243286,1.78342167968109,2.46566254776854,2.20056575608325,-2.113619,798.356628,164.330948,110.41465,1175.355835,-20.241699,"LATERAL"
140,17,7,46.768,5129.96,0.332327,0.676527,0.05293,0.655033,-0.91281,0.36058,-0.09305,5126.74,0.106593,-0.713471,0.192845,-0.665137,-0.97817,0.09305,0.09527,2.4,2.49,2.46,2.93,2.98,2.96,2.91,3.88,2.98,3.95,4.02,3.79,3.9,3.87,3.69,2521,10.504167,61666.770167,48.071442,944.876953,-194.267746,1.78361508824328,2.46553930695629,2.20060827627984,-2.116061,798.351501,164.323288,110.472885,1175.33374,-20.256226,"LATERAL"
141,17,7,46.819,5129.98,0.331986,0.676663,0.052418,0.655106,-0.90374,0.37045,-0.08222,5126.76,0.10646,-0.713739,0.192973,-0.664834,-0.98833,0.09295,0.10652,2.4,2.49,2.45,2.93,2.99,2.96,2.91,3.88,2.97,3.95,4.02,3.78,3.9,3.87,3.69,2533,10.554167,61666.820167,47.974678,944.985901,-194.408768,1.78582830069348,2.46425938225953,2.20095645771808,-2.042499,798.317261,164.307617,111.012657,1175.197021,-20.320835,"LATERAL"
142,17,7,46.824,5130,0.331752,0.676776,0.051993,0.655143,-0.91125,0.37851,-0.07452,5126.78,0.106142,-0.713906,0.193055,-0.664682,-0.99716,0.08132,0.09647,2.4,2.49,2.46,2.93,2.98,2.96,2.92,3.88,2.98,3.94,4.02,3.78,3.9,3.87,3.69,2534,10.558333,61666.824333,47.961563,945.040527,-194.412476,1.78611564952022,2.46404291998002,2.20105260925549,-2.017952,798.335999,164.297638,111.083542,1175.215454,-20.298651,"LATERAL"
143,17,7,46.842,5130.02,0.331684,0.676714,0.051619,0.65527,-0.90768,0.38215,-0.06756,5126.8,0.105741,-0.714084,0.192941,-0.664588,-1.00028,0.0787,0.08409,2.4,2.49,2.45,2.94,2.98,2.96,2.92,3.88,2.97,3.95,4.02,3.78,3.9,3.87,3.69,2539,10.579167,61666.845167,48.001774,945.227173,-194.408813,1.78651227965741,2.46357369915718,2.20135993431896,-1.922795,798.368225,164.261612,111.235237,1175.304321,-20.229862,"LATERAL"
144,17,7,46.847,5130.04,0.331767,0.676598,0.051382,0.655367,-0.89464,0.37967,-0.07464,5126.82,0.105294,-0.714287,0.192979,-0.664429,-0.99672,0.08064,0.07731,2.4,2.49,2.45,2.93,2.98,2.96,2.92,3.88,2.98,3.95,4.02,3.78,3.9,3.87,3.69,2540,10.583333,61666.849333,48.001774,945.227173,-194.408813,1.78651227965741,2.46357369915718,2.20135993431896,-1.922795,798.368225,164.261612,111.235237,1175.304321,-20.229862,"LATERAL"
145,17,7,46.881,5130.06,0.331868,0.67656,0.0514,0.655353,-0.91174,0.37291,-0.06902,5126.84,0.105191,-0.714303,0.193236,-0.664354,-0.98563,0.08147,0.07244,2.4,2.49,2.46,2.94,2.98,2.96,2.92,3.88,2.98,3.95,4.02,3.79,3.9,3.87,3.69,2548,10.616667,61666.882667,48.235989,945.478271,-194.412888,1.78636333256444,2.46311058801706,2.20190033328343,-1.765367,798.410522,164.226242,111.421043,1175.449829,-20.119987,"LATERAL"
146,17,7,46.926,5130.08,0.332067,0.676463,0.05139,0.655354,-0.9221,0.36618,-0.07016,5126.86,0.105806,-0.713905,0.193369,-0.664645,-0.97477,0.08566,0.0703,2.4,2.49,2.45,2.93,2.98,2.96,2.92,3.88,2.97,3.95,4.02,3.78,3.9,3.87,3.69,2559,10.6625,61666.9285,48.817673,945.514526,-194.368301,1.78603264414683,2.46335102531087,2.20179867487033,-1.562976,798.512878,164.298721,111.896751,1175.492188,-20.128788,"LATERAL"
147,17,7,46.931,5130.1,0.332266,0.676441,0.051652,0.655254,-0.91947,0.36834,-0.07204,5126.88,0.106197,-0.713703,0.193603,-0.664732,-0.96708,0.08941,0.075,2.4,2.49,2.46,2.94,2.98,2.96,2.92,3.88,2.98,3.95,4.02,3.79,3.9,3.87,3.69,2560,10.666667,61666.932667,48.879799,945.511963,-194.367645,1.78582594751222,2.4634138315862,2.20182475538632,-1.553723,798.520691,164.301041,111.896751,1175.492188,-20.128788,"LATERAL"
148,17,7,46.936,5130.12,0.332449,0.676409,0.051802,0.655183,-0.90908,0.37088,-0.08046,5126.9,0.106939,-0.713493,0.193888,-0.664755,-0.96418,0.08714,0.07938,2.4,2.49,2.46,2.93,2.98,2.96,2.92,3.88,2.98,3.95,4.02,3.78,3.9,3.87,3.69,2561,10.670833,61666.936833,48.941925,945.509399,-194.366989,1.78599600577465,2.46332709530213,2.20183926487942,-1.544469,798.528564,164.30336,112.00676,1175.469238,-20.127941,"LATERAL"
149,17,7,46.965,5130.14,0.332605,0.676362,0.051951,0.655141,-0.90747,0.37088,-0.08194,5126.92,0.107575,-0.713416,0.194238,-0.664633,-0.96783,0.08873,0.08376,2.4,2.49,2.46,2.93,2.98,2.96,2.92,3.88,2.98,3.94,4.02,3.78,3.9,3.87,3.68,2568,10.7,61666.966,49.510616,945.49115,-194.424133,1.78547891825973,2.46332883401036,2.20206366209747,-1.512276,798.557861,164.260742,112.419838,1175.427856,-20.149359,"LATERAL"
150,17,7,46.97,5130.16,0.332753,0.676267,0.052193,0.655145,-0.91202,0.37205,-0.08172,5126.94,0.108169,-0.713461,0.194704,-0.664352,-0.97281,0.0912,0.07776,2.4,2.49,2.46,2.93,2.98,2.96,2.92,3.88,2.98,3.95,4.02,3.79,3.9,3.87,3.69,2569,10.704167,61666.970167,49.510616,945.49115,-194.424133,1.78547891825973,2.46332883401036,2.20206366209747,-1.512276,798.557861,164.260742,112.419838,1175.427856,-20.149359,"LATERAL"
151,17,7,47.017,5130.18,0.333038,0.676059,0.052311,0.655205,-0.91378,0.36921,-0.08287,5126.96,0.108881,-0.713433,0.195285,-0.664095,-0.9766,0.08829,0.07056,2.4,2.49,2.46,2.93,2.98,2.96,2.92,3.88,2.98,3.94,4.02,3.78,3.9,3.87,3.69,2581,10.754167,61667.020167,51.004688,945.324524,-194.696136,1.78196272959163,2.46388114824525,2.20302142576884,-1.646104,798.542603,164.001175,112.908104,1175.397217,-20.167568,"LATERAL"
152,17,7,47.022,5130.2,0.333029,0.675823,0.052541,0.655435,-0.90993,0.36019,-0.08407,5126.98,0.10954,-0.713336,0.195946,-0.663896,-0.98031,0.08534,0.07054,2.4,2.49,2.46,2.93,2.98,2.96,2.92,3.88,2.98,3.94,4.02,3.78,3.9,3.87,3.69,2582,10.758333,61667.024333,51.133694,945.295776,-194.71434,1.78151157402324,2.46401055694617,2.20308259544024,-1.66497,798.538574,163.981598,112.908104,1175.397217,-20.167568,"LATERAL"
153,17,7,47.043,5130.22,0.333094,0.675656,0.052466,0.655579,-0.91134,0.35304,-0.08725,5127,0.110514,-0.713059,0.196644,-0.663826,-0.97574,0.08177,0.07656,2.4,2.49,2.45,2.93,2.98,2.96,2.92,3.88,2.98,3.94,4.02,3.78,3.9,3.87,3.69,2587,10.779167,61667.045167,51.632114,945.164917,-194.768524,1.78008133367078,2.4644763022506,2.20321713157654,-1.725926,798.497131,163.901596,112.997513,1175.368042,-20.177965,"LATERAL"
154,17,7,47.063,5130.24,0.33303,0.675601,0.052287,0.655684,-0.91593,0.3557,-0.08329,5127.02,0.111525,-0.712655,0.197402,-0.663866,-0.97098,0.081,0.08848,2.4,2.49,2.45,2.93,2.98,2.96,2.92,3.87,2.98,3.94,4.03,3.78,3.9,3.87,3.69,2592,10.8,61667.066,52.195324,944.9953,-194.79541,1.77833531175476,2.46511530483384,2.20330406943092,-1.800265,798.458496,163.86235,113.060333,1175.332397,-20.172188,"LATERAL"
155,17,7,47.068,5130.26,0.33267,0.675626,0.05215,0.655851,-0.91101,0.35976,-0.08583,5127.04,0.11248,-0.712221,0.198075,-0.66397,-0.976,0.08262,0.10017,2.4,2.49,2.45,2.93,2.99,2.96,2.92,3.88,2.98,3.94,4.02,3.79,3.9,3.87,3.69,2593,10.804167,61667.070167,52.386673,944.916626,-194.779572,1.77773310715805,2.46544431074975,2.20322154636024,-1.825738,798.44458,163.862747,113.079605,1175.322144,-20.170258,"LATERAL"
156,17,7,47.117,5130.28,0.332335,0.67576,0.051765,0.655913,-0.90557,0.3636,-0.08494,5127.06,0.113381,-0.711861,0.198552,-0.66406,-0.98071,0.08594,0.11278,2.4,2.49,2.45,2.93,2.98,2.96,2.92,3.88,2.99,3.94,4.02,3.78,3.9,3.87,3.69,2605,10.854167,61667.120167,52.881104,944.523193,-194.501282,1.77593681840527,2.46701326879915,2.20237010856598,-1.78481,798.48114,164.098389,113.051025,1175.20459,-20.105385,"LATERAL"
157,17,7,47.122,5130.3,0.331909,0.675949,0.051416,0.655962,-0.90588,0.3697,-0.08296,5127.08,0.114222,-0.711464,0.198903,-0.664237,-0.97653,0.09316,0.12619,2.4,2.49,2.45,2.93,2.98,2.96,2.92,3.88,2.99,3.94,4.02,3.79,3.9,3.87,3.69,2606,10.858333,61667.124333,52.880062,944.499634,-194.460281,1.77599427978097,2.46700468307314,2.20235484509831,-1.774358,798.483582,164.125412,113.06765,1175.183472,-20.06498,"LATERAL"
158,17,7,47.142,5130.32,0.331554,0.676106,0.051052,0.656008,-0.90895,0.37577,-0.082,5127.1,0.114553,-0.711598,0.198779,-0.664073,-0.9809,0.09443,0.12488,2.4,2.49,2.45,2.93,2.98,2.95,2.92,3.88,2.99,3.94,4.02,3.78,3.9,3.87,3.69,2611,10.879167,61667.145167,52.808357,944.442383,-194.213913,1.77625975842452,2.4671156669126,2.20213002182814,-1.717059,798.451782,164.251877,113.075371,1175.15686,-19.864534,"LATERAL"
159,17,7,47.147,5130.34,0.331339,0.676211,0.050798,0.656028,-0.90949,0.38278,-0.07736,5127.12,0.114607,-0.711679,0.198574,-0.664039,-0.99194,0.09009,0.10871,2.4,2.49,2.45,2.93,2.98,2.95,2.92,3.88,2.99,3.94,4.02,3.78,3.9,3.87,3.68,2612,10.883333,61667.149333,52.790226,944.442383,-194.164429,1.77634045651742,2.46722366406559,2.20198562526771,-1.706808,798.435669,164.273468,113.075371,1175.15686,-19.864534,"LATERAL"
160,17,7,47.199,5130.36,0.331456,0.676437,0.050791,0.655736,-0.91439,0.38766,-0.07098,5127.14,0.114472,-0.711805,0.198261,-0.66402,-0.99698,0.07908,0.09131,2.4,2.49,2.46,2.94,2.98,2.96,2.92,3.88,2.99,3.94,4.02,3.78,3.9,3.87,3.68,2624,10.933333,61667.199333,52.673035,944.684814,-193.605942,1.77619809486468,2.46663103030821,2.20265196141947,-1.667596,798.335449,164.405121,112.923767,1175.315796,-19.127638,"LATERAL"
161,17,7,47.204,5130.38,0.331615,0.676353,0.050782,0.655743,-0.90845,0.37608,-0.07542,5127.16,0.114814,-0.711846,0.19788,-0.664031,-0.99581,0.07666,0.08636,2.4,2.5,2.46,2.93,2.98,2.96,2.92,3.88,2.99,3.94,4.02,3.78,3.9,3.87,3.68,2626,10.941667,61667.207667,52.661137,944.761414,-193.51178,1.77627161623573,2.46657306496434,2.20268048816024,-1.674832,798.322571,164.420776,112.920502,1175.333374,-19.063236,"LATERAL"
162,17,7,47.223,5130.4,0.331505,0.676291,0.051209,0.655829,-0.90013,0.35878,-0.07887,5127.18,0.114918,-0.711879,0.197915,-0.663967,-0.98415,0.08676,0.08864,2.4,2.5,2.46,2.93,2.99,2.95,2.92,3.87,2.99,3.94,4.02,3.78,3.9,3.87,3.69,2630,10.958333,61667.224333,52.650345,944.83783,-193.389832,1.77623016728853,2.46637043119419,2.20290526613157,-1.687097,798.309326,164.446747,112.908745,1175.414551,-18.855808,"LATERAL"
163,17,7,47.228,5130.42,0.331624,0.67625,0.051331,0.655802,-0.90925,0.35514,-0.08313,5127.2,0.115063,-0.711991,0.198107,-0.663764,-0.96518,0.0933,0.08847,2.4,2.5,2.46,2.94,2.98,2.95,2.92,3.88,2.99,3.94,4.02,3.78,3.9,3.88,3.68,2631,10.9625,61667.2285,52.65012,944.881104,-193.32309,1.77620029630141,2.4662918294709,2.20299823062659,-1.712854,798.310852,164.462814,112.902191,1175.452148,-18.760221,"LATERAL"
164,17,7,47.278,5130.44,0.331653,0.676273,0.051453,0.655755,-0.92193,0.35941,-0.07551,5127.22,0.115029,-0.712086,0.198319,-0.663604,-0.96406,0.09183,0.08313,2.4,2.5,2.46,2.93,2.98,2.96,2.92,3.88,2.99,3.94,4.02,3.78,3.9,3.87,3.68,2643,11.0125,61667.2785,52.454933,944.831604,-192.984848,1.77673851536718,2.46643071337531,2.20263032591602,-1.815869,798.282043,164.642441,112.86039,1175.419678,-18.516186,"LATERAL"
165,17,7,47.283,5130.46,0.331261,0.676256,0.0518,0.655943,-0.91828,0.35995,-0.08929,5127.24,0.114962,-0.712078,0.198409,-0.663598,-0.957,0.09717,0.09511,2.4,2.5,2.46,2.93,2.98,2.95,2.92,3.87,2.99,3.94,4.02,3.78,3.9,3.87,3.69,2645,11.020833,61667.286833,52.384148,944.808655,-192.949463,1.77703850419089,2.46639416917544,2.20254165512846,-1.830651,798.276306,164.679016,112.874977,1175.384766,-18.505884,"LATERAL"
166,17,7,47.303,5130.48,0.331228,0.676337,0.051926,0.655865,-0.91495,0.36649,-0.08182,5127.26,0.112863,-0.713649,0.198103,-0.662361,-0.95991,0.10261,0.10451,2.4,2.5,2.46,2.93,2.99,2.95,2.92,3.88,2.99,3.94,4.02,3.78,3.9,3.87,3.68,2649,11.0375,61667.3035,52.227634,944.803345,-192.854492,1.77776552539319,2.46616753737382,2.20246739838632,-1.843769,798.23291,164.740341,112.926186,1175.328247,-18.435696,"LATERAL"
167,17,7,47.307,5130.5,0.330948,0.67636,0.052273,0.655955,-0.9138,0.36536,-0.08459,5127.28,0.112706,-0.713786,0.198025,-0.662263,-0.98779,0.09898,0.09581,2.4,2.5,2.46,2.93,2.99,2.95,2.92,3.88,2.99,3.94,4.02,3.78,3.9,3.87,3.69,2650,11.041667,61667.307667,52.184586,944.823059,-192.839554,1.77799422001744,2.4660582244599,2.20248276810739,-1.856651,798.231812,164.75444,112.949661,1175.329346,-18.415903,"LATERAL"
168,17,7,47.359,5130.52,0.330987,0.67638,0.0524,0.655906,-0.9118,0.36619,-0.07877,5127.3,0.112232,-0.714032,0.197775,-0.662154,-1.00527,0.09523,0.09072,2.4,2.49,2.46,2.94,2.98,2.95,2.92,3.88,2.99,3.94,4.02,3.78,3.9,3.87,3.69,2663,11.095833,61667.361833,51.709091,945.452026,-192.527832,1.78107103402418,2.46354099421712,2.20375238829478,-1.842689,798.15564,164.721375,113.36187,1175.487427,-17.805626,"LATERAL"
169,17,7,47.364,5130.54,0.331125,0.676326,0.052534,0.655881,-0.90819,0.36928,-0.08233,5127.32,0.111405,-0.714438,0.197465,-0.661948,-1.00309,0.08967,0.09089,2.4,2.49,2.46,2.93,2.99,2.95,2.92,3.88,2.99,3.94,4.02,3.79,3.9,3.87,3.68,2664,11.1,61667.366,51.68959,945.524841,-192.519272,1.781204480705,2.46330261348814,2.20393942623888,-1.841068,798.158081,164.71225,113.381027,1175.516479,-17.752213,"LATERAL"
170,17,7,47.386,5130.56,0.331146,0.67643,0.052914,0.655732,-0.90451,0.36061,-0.07077,5127.34,0.110491,-0.714913,0.197282,-0.661643,-0.99653,0.08582,0.08452,2.4,2.49,2.45,2.93,2.99,2.95,2.92,3.88,2.99,3.94,4.02,3.78,3.9,3.87,3.69,2669,11.120833,61667.386833,51.641129,945.82074,-192.526215,1.78161907438385,2.4624129594862,2.20467297955322,-1.838019,798.196167,164.659485,113.45575,1175.660156,-17.57482,"LATERAL"
171,17,7,47.39,5130.58,0.331207,0.676368,0.052898,0.655766,-0.91187,0.35205,-0.07366,5127.36,0.109722,-0.715222,0.197336,-0.66142,-0.9809,0.09408,0.08018,2.4,2.49,2.45,2.93,2.99,2.95,2.92,3.88,2.99,3.94,4.02,3.78,3.89,3.87,3.69,2670,11.125,61667.391,51.62339,945.928284,-192.531982,1.78170269755762,2.46208587818575,2.20497210398233,-1.838712,798.208557,164.644455,113.465164,1175.71814,-17.500914,"LATERAL"
172,17,7,47.442,5130.6,0.330909,0.6765,0.053488,0.655734,-0.92458,0.35808,-0.07101,5127.38,0.109008,-0.71536,0.197549,-0.661326,-0.96831,0.09504,0.07966,2.4,2.49,2.46,2.94,2.99,2.95,2.92,3.88,3,3.94,4.02,3.79,3.9,3.87,3.69,2683,11.179167,61667.445167,51.425522,946.131958,-192.485611,1.78134844073849,2.46152885727666,2.2056942926207,-1.904609,798.160767,164.735291,113.162956,1175.810913,-17.288425,"LATERAL"
173,17,7,47.447,5130.62,0.330888,0.676469,0.053492,0.655776,-0.92688,0.36192,-0.07432,5127.4,0.108521,-0.715209,0.197728,-0.661516,-0.95372,0.09024,0.08554,2.4,2.49,2.46,2.93,2.99,2.96,2.92,3.88,2.99,3.93,4.02,3.78,3.9,3.87,3.69,2684,11.183333,61667.449333,51.358078,946.092285,-192.471451,1.78135749552378,2.46157663951699,2.20564149111333,-1.912223,798.145325,164.777481,113.094528,1175.766724,-17.297037,"LATERAL"
174,17,7,47.465,5130.64,0.330831,0.676494,0.053466,0.65578,-0.92051,0.36394,-0.08046,5127.42,0.10803,-0.714915,0.197831,-0.661883,-0.94606,0.08913,0.09701,2.4,2.49,2.45,2.93,2.99,2.95,2.92,3.88,2.99,3.94,4.02,3.79,3.9,3.87,3.69,2688,11.2,61667.466,51.178047,945.976807,-192.433334,1.7816398702212,2.46174435284798,2.20534879766997,-1.914142,798.123108,164.870468,112.999832,1175.696411,-17.317852,"LATERAL"
175,17,7,47.47,5130.66,0.330597,0.676572,0.053466,0.655818,-0.90826,0.3674,-0.08728,5127.44,0.10769,-0.714617,0.197934,-0.662229,-0.95318,0.09237,0.10486,2.4,2.49,2.45,2.93,2.99,2.96,2.92,3.87,2.99,3.93,4.03,3.79,3.9,3.87,3.69,2689,11.204167,61667.470167,51.131699,945.948669,-192.420181,1.7816010591389,2.46170759932305,2.20540306991927,-1.917263,798.120544,164.895187,112.932663,1175.625732,-17.319017,"LATERAL"
176,17,7,47.519,5130.68,0.330433,0.676734,0.053389,0.65574,-0.9002,0.36785,-0.08322,5127.46,0.10749,-0.714499,0.197955,-0.662383,-0.97616,0.0933,0.10456,2.4,2.49,2.45,2.93,2.99,2.96,2.92,3.88,2.99,3.93,4.02,3.79,3.9,3.87,3.69,2701,11.254167,61667.520167,50.468975,945.740112,-192.201309,1.78328458078587,2.4616904603933,2.20469624798172,-1.91461,798.020264,165.010025,112.758209,1175.421875,-17.2623,"LATERAL"
177,17,7,47.524,5130.7,0.330403,0.677008,0.053552,0.655459,-0.90465,0.36975,-0.0836,5127.48,0.107142,-0.714496,0.197948,-0.662444,-0.98887,0.09478,0.09865,2.4,2.49,2.45,2.93,2.99,2.95,2.92,3.88,2.99,3.94,4.02,3.79,3.89,3.87,3.69,2702,11.258333,61667.524333,50.424767,945.753601,-192.179565,1.78345237434906,2.46149161934731,2.20482745257384,-1.921713,798.009521,165.007782,112.76281,1175.39978,-17.208309,"LATERAL"
178,17,7,47.546,5130.72,0.330511,0.677051,0.053565,0.65536,-0.91241,0.36844,-0.07371,5127.5,0.106854,-0.714608,0.197916,-0.66238,-0.9997,0.09117,0.08876,2.4,2.49,2.45,2.93,2.99,2.95,2.92,3.88,2.99,3.93,4.02,3.79,3.9,3.87,3.69,2708,11.283333,61667.549333,50.233646,945.922668,-192.006348,1.78408447696316,2.46108973201483,2.20496559853693,-1.95881,797.969666,164.990952,112.74382,1175.456177,-17.031191,"LATERAL"
179,17,7,47.551,5130.74,0.330724,0.677008,0.053566,0.655296,-0.91281,0.36056,-0.07476,5127.52,0.106257,-0.714909,0.19799,-0.662128,-1.00471,0.08648,0.08601,2.4,2.49,2.45,2.93,2.99,2.95,2.92,3.88,3,3.93,4.02,3.78,3.9,3.87,3.69,2709,11.2875,61667.5535,50.20956,945.956116,-191.973373,1.7841976011877,2.46107886221821,2.20492769138124,-1.95651,797.966614,164.989441,112.74382,1175.456177,-17.031191,"LATERAL"
180,17,7,47.599,5130.76,0.330416,0.677091,0.053965,0.655332,-0.9161,0.35348,-0.07307,5127.54,0.105074,-0.715317,0.197962,-0.661885,-0.98732,0.09832,0.08862,2.4,2.49,2.45,2.93,2.99,2.95,2.92,3.87,3,3.93,4.02,3.78,3.9,3.87,3.69,2720,11.333333,61667.599333,49.835903,946.340271,-191.619293,1.78512901500985,2.46050298456319,2.20511306298853,-1.940619,798.038879,165.102707,112.611572,1175.633423,-16.709213,"LATERAL"
181,17,7,47.604,5130.78,0.330328,0.677183,0.053836,0.655293,-0.91746,0.35184,-0.08109,5127.56,0.103221,-0.715788,0.197852,-0.6617,-0.96709,0.11405,0.09947,2.4,2.49,2.45,2.93,2.99,2.95,2.92,3.88,2.99,3.93,4.02,3.78,3.9,3.87,3.69,2722,11.341667,61667.607667,49.698067,946.427917,-191.548965,1.78561714477177,2.460284219695,2.20512450135772,-1.924477,798.042236,165.135529,112.606262,1175.650391,-16.659069,"LATERAL"
182,17,7,47.625,5130.8,0.330034,0.677417,0.053903,0.655193,-0.91764,0.35897,-0.08013,5127.58,0.100788,-0.716293,0.197919,-0.661509,-0.95297,0.12362,0.12427,2.4,2.49,2.45,2.93,2.99,2.95,2.92,3.87,3,3.93,4.02,3.78,3.9,3.87,3.69,2727,11.3625,61667.6285,49.092548,946.707092,-191.399231,1.78773481757496,2.45911719516659,2.20539254915892,-1.87634,798.029663,165.261826,112.589508,1175.634399,-16.505299,"LATERAL"
183,17,7,47.63,5130.82,0.329881,0.677566,0.053821,0.655123,-0.92217,0.37212,-0.07288,5127.6,0.097857,-0.716833,0.198113,-0.661306,-0.94765,0.12136,0.13379,2.4,2.49,2.45,2.93,2.99,2.96,2.92,3.88,3,3.94,4.02,3.78,3.9,3.87,3.69,2728,11.366667,61667.632667,48.960335,946.748962,-191.380875,1.78819226431667,2.45889870292793,2.20541495292921,-1.870655,798.02594,165.281769,112.587448,1175.629761,-16.48609,"LATERAL"
184,17,7,47.68,5130.84,0.329872,0.677665,0.05391,0.655018,-0.91574,0.37502,-0.07462,5127.62,0.094209,-0.717514,0.198117,-0.661096,-0.95265,0.13606,0.14275,2.4,2.49,2.45,2.93,2.99,2.96,2.92,3.88,3,3.94,4.02,3.79,3.9,3.87,3.69,2740,11.416667,61667.682667,46.732422,947.629578,-191.277847,1.79639364698305,2.45415746825939,2.20659858022475,-1.76944,797.93927,165.597153,112.671844,1175.459717,-16.229317,"LATERAL"
185,17,7,47.685,5130.86,0.329903,0.677773,0.054141,0.654871,-0.90411,0.36942,-0.07399,5127.64,0.089508,-0.718558,0.197874,-0.660688,-0.96,0.15109,0.14021,2.4,2.49,2.45,2.93,2.99,2.96,2.92,3.88,2.99,3.94,4.02,3.78,3.9,3.87,3.69,2741,11.420833,61667.686833,46.519714,947.728271,-191.29245,1.79715338689983,2.45363429311362,2.2067884253159,-1.756151,797.950745,165.624619,112.67543,1175.453735,-16.204109,"LATERAL"
186,17,7,47.706,5130.88,0.330004,0.677831,0.054357,0.654743,-0.9047,0.36429,-0.07624,5127.66,0.084006,-0.719527,0.197788,-0.660381,-0.98253,0.16684,0.13836,2.4,2.49,2.45,2.93,2.99,2.96,2.92,3.88,2.99,3.94,4.02,3.78,3.9,3.87,3.69,2746,11.441667,61667.707667,45.372478,948.44043,-191.406006,1.80142639357321,2.45041488567984,2.20812200792561,-1.687298,797.987061,165.744247,112.71801,1175.437378,-16.097927,"LATERAL"
187,17,7,47.711,5130.9,0.329972,0.678017,0.054762,0.654532,-0.90901,0.36098,-0.07197,5127.68,0.078017,-0.720375,0.198312,-0.660035,-0.9841,0.18583,0.14188,2.4,2.49,2.45,2.93,2.99,2.96,2.92,3.88,2.99,3.93,4.02,3.79,3.9,3.87,3.69,2747,11.445833,61667.711833,45.125591,948.621216,-191.450211,1.80238407092352,2.44948099074585,2.20863471453269,-1.671751,797.993835,165.768204,112.742546,1175.431885,-16.029108,"LATERAL"
188,17,7,47.763,5130.92,0.330122,0.678048,0.054949,0.654409,-0.9105,0.36255,-0.08168,5127.7,0.071585,-0.72094,0.199375,-0.659826,-1.00063,0.19475,0.13611,2.4,2.49,2.45,2.93,2.99,2.96,2.92,3.88,2.99,3.94,4.02,3.79,3.9,3.87,3.69,2760,11.5,61667.766,42.163696,951.436157,-192.364685,1.81364766227448,2.43653570223242,2.21656431045998,-1.690571,797.964417,165.967667,112.931053,1175.557007,-15.259777,"LATERAL"
189,17,7,47.768,5130.94,0.330287,0.678098,0.055237,0.65425,-0.91821,0.36292,-0.06874,5127.72,0.065444,-0.721141,0.201149,-0.659706,-1.00814,0.1912,0.10951,2.4,2.49,2.45,2.93,2.99,2.96,2.92,3.88,2.99,3.94,4.02,3.78,3.9,3.87,3.69,2761,11.504167,61667.770167,41.97266,951.686768,-192.458374,1.81439111936815,2.43557479311736,2.21718954624333,-1.702432,797.957886,165.974197,112.931053,1175.557007,-15.259777,"LATERAL"
190,17,7,47.784,5130.96,0.330331,0.678097,0.055639,0.654194,-0.92824,0.36475,-0.07047,5127.74,0.059416,-0.72099,0.203462,-0.659732,-1.00959,0.18607,0.08888,2.4,2.49,2.45,2.93,2.99,2.96,2.92,3.88,2.99,3.94,4.02,3.79,3.9,3.87,3.69,2765,11.520833,61667.786833,41.40527,952.45697,-192.747314,1.81630856346328,2.43205416847748,2.21986781906586,-1.735967,797.929077,165.988297,112.917007,1175.672607,-14.905396,"LATERAL"
191,17,7,47.789,5130.98,0.330409,0.678054,0.055807,0.654186,-0.91895,0.35681,-0.0765,5127.76,0.053371,-0.720324,0.206123,-0.660151,-1.00279,0.18673,0.07101,2.4,2.49,2.45,2.93,2.99,2.96,2.92,3.88,2.99,3.94,4.02,3.79,3.9,3.87,3.69,2766,11.525,61667.791,41.081573,952.926025,-192.913452,1.81737108516217,2.43001733800885,2.22143717945774,-1.75445,797.919434,165.996948,112.893784,1175.74231,-14.710681,"LATERAL"
192,17,7,47.838,5131,0.329993,0.677986,0.056061,0.654443,-0.90768,0.35066,-0.08521,5127.78,0.047212,-0.719147,0.208942,-0.661016,-0.98764,0.19489,0.06669,2.4,2.49,2.45,2.93,2.99,2.96,2.92,3.88,2.99,3.94,4.02,3.79,3.9,3.87,3.69,2778,11.575,61667.841,39.431602,955.941589,-194.0616,1.82306330699667,2.41693613245896,2.2320298467912,-1.882209,797.839905,166.050034,112.807037,1176.046631,-13.535899,"LATERAL"
193,17,7,47.843,5131.02,0.329803,0.678125,0.056015,0.6544,-0.90895,0.34673,-0.07973,5127.8,0.040936,-0.717335,0.212105,-0.662394,-0.97267,0.21476,0.06902,2.4,2.49,2.45,2.93,2.99,2.96,2.92,3.88,2.99,3.94,4.02,3.79,3.9,3.87,3.69,2779,11.579167,61667.845167,39.431602,955.941589,-194.0616,1.82306330699667,2.41693613245896,2.2320298467912,-1.882209,797.839905,166.050034,112.807037,1176.046631,-13.535899,"LATERAL"
194,17,7,47.865,5131.04,0.329597,0.678252,0.05598,0.654375,-0.91779,0.35062,-0.0742,5127.82,0.034353,-0.715095,0.215454,-0.664107,-0.97635,0.23575,0.07302,2.4,2.49,2.45,2.93,2.99,2.96,2.92,3.88,2.99,3.94,4.02,3.79,3.9,3.87,3.69,2784,11.6,61667.866,38.850018,957.743896,-194.78067,1.82490286155851,2.40937764804591,2.23884490760628,-1.923928,797.770264,166.118179,112.695389,1176.211182,-12.810074,"LATERAL"
195,17,7,47.87,5131.06,0.329331,0.678413,0.056256,0.654318,-0.91874,0.35756,-0.07181,5127.84,0.027785,-0.71237,0.218975,-0.666189,-0.97771,0.2454,0.07071,2.4,2.49,2.45,2.93,3,2.96,2.92,3.88,2.99,3.93,4.02,3.79,3.9,3.87,3.69,2785,11.604167,61667.870167,38.635036,957.911133,-194.90657,1.82565211928459,2.40849693677131,2.23936996228277,-1.924541,797.756836,166.133743,112.695389,1176.211182,-12.810074,"LATERAL"
196,17,7,47.92,5131.08,0.329264,0.678513,0.056428,0.654234,-0.91417,0.35765,-0.07504,5127.86,0.021361,-0.709189,0.222699,-0.668581,-0.97825,0.2546,0.06463,2.4,2.49,2.45,2.93,2.99,2.96,2.92,3.88,2.99,3.93,4.02,3.79,3.9,3.87,3.69,2797,11.654167,61667.920167,37.943249,961.267517,-196.460114,1.82788455270665,2.39410367110509,2.25293827400074,-1.924056,797.718262,166.385666,112.64447,1176.734131,-11.236776,"LATERAL"
197,17,7,47.925,5131.1,0.329121,0.678694,0.056724,0.654092,-0.91016,0.35812,-0.07063,5127.88,0.014951,-0.705792,0.226395,-0.671103,-0.98973,0.26765,0.06679,2.4,2.49,2.45,2.93,2.99,2.96,2.92,3.88,2.99,3.94,4.02,3.79,3.9,3.87,3.69,2799,11.6625,61667.9285,38.231594,962.099365,-196.711227,1.82733341111479,2.39139697110682,2.25597111055839,-1.923652,797.718567,166.430389,112.702721,1176.812744,-10.980375,"LATERAL"
198,17,7,47.944,5131.12,0.329071,0.678787,0.056932,0.654003,-0.91209,0.36285,-0.07186,5127.9,0.00856,-0.702886,0.230251,-0.67295,-0.92264,0.2711,0.06975,2.4,2.49,2.45,2.93,2.99,2.96,2.92,3.88,2.99,3.94,4.02,3.79,3.9,3.87,3.69,2803,11.679167,61667.945167,38.297443,963.507751,-197.359711,1.82745842939549,2.38573459999029,2.26166793099017,-1.906686,797.70575,166.51091,112.771431,1176.991089,-10.41912,"LATERAL"
199,17,7,47.963,5131.14,0.329059,0.678887,0.057262,0.653876,-0.91666,0.36435,-0.06956,5127.92,0.002649,-0.699985,0.234499,-0.674555,-0.96953,0.29363,0.06749,2.4,2.49,2.45,2.93,2.99,2.96,2.92,3.88,2.99,3.94,4.02,3.79,3.89,3.87,3.69,2808,11.7,61667.966,38.447403,965.145813,-198.16716,1.82732125991158,2.37928927369256,2.26828143595121,-1.88358,797.698425,166.6129,112.819695,1177.148804,-9.894256,"LATERAL"
200,17,7,47.968,5131.16,0.329024,0.678983,0.057754,0.653751,-0.91863,0.36326,-0.06838,5127.94,-0.002993,-0.696989,0.23895,-0.676092,-0.93576,0.30294,0.07064,2.4,2.49,2.45,2.93,2.99,2.96,2.92,3.88,2.99,3.93,4.02,3.79,3.9,3.87,3.69,2809,11.704167,61667.970167,38.496143,965.4422,-198.310104,1.82714754621065,2.37788610432139,2.26979131891397,-1.877322,797.695435,166.63652,112.848259,1177.243774,-9.624395,"LATERAL"
201,17,7,48.022,5131.18,0.329028,0.679005,0.058132,0.653692,-0.91872,0.35985,-0.0678,5127.96,-0.008685,-0.693976,0.243764,-0.677422,-0.93502,0.33456,0.07291,2.4,2.49,2.45,2.93,3,2.96,2.92,3.88,2.99,3.94,4.02,3.79,3.9,3.87,3.69,2822,11.758333,61668.024333,38.939014,969.641724,-200.289566,1.82726401891356,2.3608716428938,2.28695015804054,-1.796627,797.632446,166.894714,113.208572,1177.638428,-8.079289,"LATERAL"
202,17,7,48.028,5131.2,0.32896,0.679061,0.058621,0.653624,-0.91612,0.35646,-0.07188,5127.98,-0.014388,-0.69091,0.248103,-0.678883,-0.92688,0.3254,0.06818,2.4,2.49,2.45,2.93,2.99,2.96,2.92,3.88,2.99,3.94,4.02,3.79,3.9,3.87,3.69,2823,11.7625,61668.0285,38.962677,969.956604,-200.427628,1.82730488604379,2.35982243254188,2.2879890741191,-1.790718,797.628662,166.918427,113.208572,1177.638428,-8.079289,"LATERAL"
203,17,7,48.04,5131.22,0.328862,0.679084,0.058932,0.653622,-0.91642,0.35463,-0.06892,5128,-0.02014,-0.687446,0.252796,-0.68052,-0.94352,0.34638,0.06869,2.4,2.49,2.45,2.93,2.99,2.96,2.92,3.88,2.99,3.94,4.02,3.79,3.9,3.87,3.69,2826,11.775,61668.041,39.057327,970.922363,-200.827225,1.8273600678924,2.3557861630312,2.292033616501,-1.76871,797.608337,166.983322,113.303009,1177.726196,-7.629621,"LATERAL"
204,17,7,48.062,5131.24,0.328726,0.679119,0.059225,0.653627,-0.91502,0.3546,-0.07166,5128.02,-0.025999,-0.684099,0.256945,-0.682137,-0.88194,0.36342,0.07438,2.4,2.49,2.45,2.93,2.99,2.96,2.92,3.88,2.99,3.93,4.02,3.78,3.9,3.87,3.7,2832,11.8,61668.066,38.096596,971.550781,-201.36998,1.83057605878759,2.35087317434443,2.29538490290856,-1.729932,797.562744,167.136124,113.461464,1177.908691,-6.896693,"LATERAL"
205,17,7,48.067,5131.26,0.328377,0.679279,0.059658,0.653597,-0.91926,0.35236,-0.06764,5128.04,-0.032469,-0.681068,0.261032,-0.683341,-0.92374,0.39082,0.07195,2.4,2.49,2.45,2.93,2.99,2.96,2.92,3.88,2.99,3.93,4.02,3.78,3.9,3.87,3.69,2833,11.804167,61668.070167,38.10984,971.887512,-201.519287,1.83066669909223,2.34953070426618,2.29669171337419,-1.72558,797.560913,167.158966,113.492493,1177.943604,-6.779524,"LATERAL"
206,17,7,48.12,5131.28,0.328125,0.679352,0.059786,0.653636,-0.91821,0.35355,-0.06873,5128.06,-0.038782,-0.677826,0.265558,-0.68449,-0.9285,0.42465,0.06911,2.4,2.49,2.45,2.93,2.99,2.96,2.92,3.88,2.99,3.94,4.02,3.79,3.9,3.87,3.69,2845,11.854167,61668.120167,37.986801,976.820129,-203.39357,1.83341367978003,2.33075237984556,2.3141793348445,-1.706962,797.495361,167.513519,113.988914,1178.496704,-5.261479,"LATERAL"
207,17,7,48.125,5131.3,0.327771,0.679438,0.06002,0.653703,-0.91457,0.35379,-0.06913,5128.08,-0.045502,-0.674439,0.270093,-0.685647,-0.92943,0.4443,0.06309,2.4,2.49,2.45,2.93,3,2.96,2.92,3.88,2.99,3.94,4.02,3.79,3.9,3.87,3.69,2847,11.8625,61668.1285,38.009239,977.845642,-203.740982,1.83377974819233,2.32710152851689,2.31765235185099,-1.704178,797.477112,167.570435,114.072746,1178.63501,-4.971579,"LATERAL"
208,17,7,48.143,5131.32,0.327459,0.679536,0.060107,0.65375,-0.91816,0.3531,-0.07279,5128.1,-0.052274,-0.671005,0.274944,-0.686604,-0.93455,0.46816,0.06526,2.4,2.49,2.45,2.93,2.99,2.96,2.92,3.88,3,3.94,4.02,3.79,3.9,3.87,3.69,2851,11.879167,61668.145167,37.921719,980.045288,-204.507492,1.83498369079967,2.31916976114429,2.32497889801243,-1.709921,797.444519,167.677246,114.255569,1178.958496,-4.353236,"LATERAL"
209,17,7,48.148,5131.34,0.327192,0.679619,0.060246,0.653785,-0.91976,0.35249,-0.07179,5128.12,-0.059089,-0.66764,0.280358,-0.687142,-0.92132,0.49792,0.07017,2.4,2.49,2.45,2.93,2.99,2.96,2.92,3.88,2.99,3.94,4.02,3.79,3.9,3.87,3.69,2852,11.883333,61668.149333,37.881512,980.608459,-204.696335,1.83529782131425,2.31709867300576,2.32688903765235,-1.713774,797.441895,167.700134,114.284187,1179.026123,-4.187475,"LATERAL"
210,17,7,48.201,5131.36,0.326852,0.679709,0.060591,0.653829,-0.91853,0.35174,-0.07183,5128.14,-0.065981,-0.664072,0.286042,-0.68763,-0.942,0.50476,0.06761,2.4,2.49,2.45,2.93,2.99,2.96,2.92,3.88,2.99,3.94,4.02,3.79,3.9,3.87,3.69,2865,11.9375,61668.2035,37.018295,988.994934,-207.1754,1.84076810563539,2.28776063395709,2.3532837202417,-1.735532,797.406555,167.918045,114.650368,1180.262939,-1.951257,"LATERAL"
211,17,7,48.205,5131.38,0.326643,0.679822,0.060795,0.653797,-0.91725,0.34903,-0.07146,5128.16,-0.072879,-0.660169,0.291699,-0.688315,-0.91448,0.51998,0.06871,2.4,2.49,2.45,2.93,2.99,2.96,2.92,3.88,2.99,3.94,4.02,3.79,3.9,3.87,3.69,2866,11.941667,61668.207667,36.952984,989.649048,-207.358673,1.84111044769729,2.28548210247827,2.35536414898563,-1.738583,797.401367,167.925964,114.657722,1180.359253,-1.767359,"LATERAL"
212,17,7,48.226,5131.4,0.326214,0.680022,0.06102,0.653782,-0.92182,0.34584,-0.07045,5128.18,-0.080478,-0.657228,0.297243,-0.687911,-0.8139,0.52128,0.06789,2.4,2.49,2.45,2.93,2.99,2.96,2.92,3.88,2.99,3.94,4.02,3.79,3.9,3.87,3.69,2871,11.9625,61668.2285,36.482414,993.19458,-208.276855,1.8435942449708,2.27303976922794,2.36637624086901,-1.746105,797.390808,167.994324,114.743591,1180.82019,-0.801023,"LATERAL"
213,17,7,48.231,5131.42,0.325808,0.680251,0.061067,0.653742,-0.9259,0.34405,-0.06644,5128.2,-0.088301,-0.654194,0.302727,-0.687452,-0.88813,0.52565,0.04975,2.4,2.49,2.45,2.93,2.99,2.96,2.92,3.88,2.99,3.94,4.02,3.79,3.89,3.87,3.69,2872,11.966667,61668.232667,36.400284,993.884644,-208.450912,1.84401608151764,2.2706648086381,2.36849897378489,-1.749703,797.389954,168.016724,114.751152,1180.915527,-0.619086,"LATERAL"
214,17,7,48.282,5131.44,0.325372,0.680456,0.061099,0.653743,-0.92468,0.3431,-0.06351,5128.22,-0.095696,-0.650621,0.308661,-0.687214,-0.89113,0.54968,0.04342,2.4,2.49,2.45,2.92,2.99,2.96,2.92,3.88,2.99,3.94,4.02,3.79,3.9,3.87,3.69,2884,12.016667,61668.282667,34.947952,1002.602905,-210.471054,1.85036752982119,2.24044232177972,2.39480902807132,-1.751378,797.326538,168.32695,114.684731,1181.963135,1.590551,"LATERAL"
215,17,7,48.287,5131.46,0.324866,0.680657,0.061329,0.653764,-0.92074,0.34262,-0.06576,5128.24,-0.103205,-0.646524,0.314491,-0.687351,-0.7981,0.55402,0.03591,2.4,2.49,2.45,2.92,2.99,2.96,2.92,3.88,2.99,3.94,4.02,3.79,3.9,3.87,3.69,2886,12.025,61668.291,34.684242,1004.087708,-210.800491,1.85143885080269,2.23533142198745,2.39922295311762,-1.746533,797.31958,168.397629,114.651268,1182.137939,1.946502,"LATERAL"
216,17,7,48.304,5131.48,0.324497,0.680814,0.061473,0.65377,-0.91879,0.34377,-0.06288,5128.26,-0.111565,-0.642856,0.32002,-0.686932,-0.83639,0.57886,0.03026,2.41,2.49,2.45,2.92,2.99,2.96,2.92,3.88,2.99,3.94,4.02,3.79,3.9,3.87,3.69,2890,12.041667,61668.307667,34.205807,1007.104858,-211.374283,1.85365314490364,2.22505135492247,2.40803511986092,-1.731365,797.303101,168.530136,114.624771,1182.455688,2.652844,"LATERAL"
217,17,7,48.309,5131.5,0.32416,0.680914,0.061764,0.653806,-0.91682,0.34706,-0.06798,5128.28,-0.119554,-0.63836,0.32591,-0.687012,-0.84183,0.59633,0.01747,2.41,2.49,2.45,2.92,2.99,2.96,2.92,3.88,2.99,3.94,4.02,3.79,3.9,3.88,3.7,2891,12.045833,61668.311833,34.077881,1007.865173,-211.535965,1.85425863432864,2.22242686254057,2.4102556352275,-1.73071,797.299683,168.565506,114.626144,1182.532471,2.817296,"LATERAL"
218,17,7,48.365,5131.52,0.32403,0.681015,0.062083,0.653734,-0.9171,0.34921,-0.06419,5128.3,-0.128118,-0.634245,0.331706,-0.686506,-0.7817,0.5952,0.01784,2.41,2.49,2.45,2.92,2.99,2.96,2.92,3.88,2.99,3.94,4.02,3.79,3.91,3.87,3.7,2904,12.1,61668.366,32.898346,1016.317017,-213.066513,1.85942556143519,2.19380551888522,2.43505112743283,-1.657801,797.205017,169.006424,114.458565,1183.50769,4.878955,"LATERAL"
219,17,7,48.37,5131.54,0.324014,0.681087,0.062485,0.65363,-0.9199,0.34949,-0.06423,5128.32,-0.136218,-0.629603,0.337759,-0.686268,-0.81452,0.62355,0.01444,2.41,2.49,2.45,2.92,2.99,2.96,2.92,3.88,2.99,3.94,4.02,3.8,3.91,3.87,3.7,2905,12.104167,61668.370167,32.898346,1016.317017,-213.066513,1.85924450892236,2.19371568357091,2.43523735856865,-1.656712,797.198608,169.028625,114.446999,1183.565063,5.015666,"LATERAL"
220,17,7,48.374,5131.56,0.324038,0.681156,0.062999,0.653496,-0.92256,0.34757,-0.0643,5128.34,-0.145204,-0.625288,0.343582,-0.685479,-0.71831,0.63994,0.00844,2.41,2.49,2.45,2.93,2.99,2.96,2.92,3.88,2.99,3.94,4.01,3.8,3.91,3.87,3.69,2906,12.108333,61668.374333,32.898346,1016.317017,-213.066513,1.85904867211488,2.19366591462352,2.43539325196633,-1.658273,797.190552,169.055313,114.4338,1183.636841,5.153397,"LATERAL"
221,17,7,48.402,5131.58,0.32416,0.681207,0.063548,0.653329,-0.92212,0.34359,-0.06165,5128.36,-0.153918,-0.620522,0.349663,-0.684833,-0.83156,0.64652,-0.00568,2.41,2.49,2.45,2.93,2.99,2.96,2.92,3.88,2.99,3.94,4.01,3.8,3.92,3.87,3.7,2913,12.1375,61668.4035,32.898346,1016.317017,-213.066513,1.85743622289301,2.19328428880427,2.4366475579441,-1.658202,797.135437,169.204056,114.246567,1184.076416,6.077051,"LATERAL"
222,17,7,48.407,5131.6,0.324188,0.68127,0.064176,0.653189,-0.92256,0.33986,-0.06278,5128.38,-0.162532,-0.615894,0.355925,-0.683795,-0.70834,0.66762,0.00153,2.41,2.49,2.45,2.93,2.99,2.96,2.92,3.88,2.99,3.94,4.01,3.81,3.92,3.87,3.69,2914,12.141667,61668.407667,32.898346,1016.317017,-213.066513,1.85726973482496,2.19323992106255,2.43678160345266,-1.655968,797.128357,169.218567,114.231262,1184.129272,6.184649,"LATERAL"
223,17,7,48.457,5131.62,0.324235,0.68135,0.064617,0.653039,-0.92414,0.33602,-0.06426,5128.4,-0.171921,-0.611191,0.362354,-0.68234,-0.71795,0.6996,0.01038,2.41,2.49,2.45,2.93,2.99,2.96,2.92,3.88,2.99,3.94,4.01,3.81,3.92,3.88,3.7,2926,12.191667,61668.457667,32.898346,1016.317017,-213.066513,1.85604206931227,2.19270395839388,2.43796914286291,-1.624936,797.104248,169.462341,114.198067,1184.637085,7.234661,"LATERAL"
224,17,7,48.466,5131.64,0.324178,0.681473,0.064926,0.652907,-0.92343,0.33337,-0.06376,5128.42,-0.181248,-0.606248,0.369347,-0.680584,-0.69739,0.72548,0.00249,2.41,2.49,2.45,2.93,2.99,2.96,2.92,3.88,2.99,3.94,4.01,3.82,3.92,3.87,3.69,2928,12.2,61668.466,32.898346,1016.317017,-213.066513,1.85578432978261,2.19265428405004,2.43815784361014,-1.620355,797.11261,169.49614,114.181076,1184.738281,7.417679,"LATERAL"
225,17,7,48.485,5131.66,0.323899,0.681648,0.065399,0.652816,-0.92465,0.33543,-0.06069,5128.44,-0.190333,-0.601231,0.376679,-0.678534,-0.71294,0.72937,-0.01496,2.41,2.49,2.45,2.93,2.99,2.96,2.92,3.88,2.99,3.94,4.02,3.82,3.92,3.87,3.69,2933,12.220833,61668.486833,32.898346,1016.317017,-213.066513,1.85500259738374,2.19268370583109,2.43855667141353,-1.600702,797.124451,169.568634,114.123108,1185.075439,7.924705,"LATERAL"
226,17,7,48.49,5131.68,0.323831,0.681752,0.065591,0.652722,-0.9262,0.33939,-0.06079,5128.46,-0.198975,-0.595903,0.38372,-0.676807,-0.71631,0.73169,-0.02269,2.41,2.49,2.45,2.93,2.99,2.96,2.92,3.88,2.99,3.94,4.02,3.82,3.92,3.87,3.69,2934,12.225,61668.491,32.898346,1016.317017,-213.066513,1.85488977566041,2.19269920014963,2.4386033510265,-1.594899,797.128052,169.577026,114.128273,1185.155029,8.032896,"LATERAL"
227,17,7,48.539,5131.7,0.323582,0.681909,0.065928,0.652647,-0.92629,0.34286,-0.06165,5128.48,-0.207819,-0.590346,0.389697,-0.675602,-0.68821,0.74126,-0.01404,2.41,2.49,2.45,2.93,2.99,2.96,2.92,3.88,2.99,3.94,4.02,3.83,3.92,3.87,3.69,2946,12.275,61668.541,32.898346,1016.317017,-213.066513,1.85365338202132,2.19283586586009,2.43914533397558,-1.548392,797.177979,169.601166,114.191689,1186.037842,9.248631,"LATERAL"
228,17,7,48.544,5131.72,0.323475,0.681986,0.06603,0.652609,-0.9274,0.33841,-0.05976,5128.5,-0.217075,-0.584528,0.3947,-0.674846,-0.63578,0.76557,-0.00668,2.41,2.49,2.45,2.93,2.99,2.96,2.92,3.88,2.99,3.94,4.03,3.83,3.92,3.87,3.69,2947,12.279167,61668.545167,32.898346,1016.317017,-213.066513,1.85348831215596,2.19291635829784,2.4391577251344,-1.541801,797.177063,169.594391,114.17765,1186.124023,9.338884,"LATERAL"
229,17,7,48.564,5131.74,0.323341,0.682086,0.066088,0.652566,-0.92662,0.33491,-0.05772,5128.52,-0.226253,-0.578496,0.399503,-0.674203,-0.62547,0.77436,-0.0166,2.41,2.49,2.45,2.93,2.99,2.96,2.92,3.88,2.99,3.94,4.03,3.84,3.92,3.87,3.69,2952,12.3,61668.566,32.898346,1016.317017,-213.066513,1.85256376263667,2.19319204080573,2.43939444394138,-1.512779,797.177185,169.559677,114.080956,1186.529053,9.828358,"LATERAL"
230,17,7,48.569,5131.76,0.322837,0.68219,0.066313,0.652683,-0.92641,0.33146,-0.05931,5128.54,-0.234746,-0.572541,0.404585,-0.673351,-0.61131,0.75884,-0.02096,2.41,2.49,2.45,2.93,2.99,2.96,2.92,3.88,2.99,3.94,4.04,3.84,3.93,3.87,3.69,2953,12.304167,61668.570167,32.898346,1016.317017,-213.066513,1.8523744411737,2.19328606877458,2.43940663509083,-1.507422,797.176453,169.547424,114.056381,1186.611206,9.90902,"LATERAL"
231,17,7,48.601,5131.78,0.322672,0.682254,0.066202,0.65271,-0.92889,0.32989,-0.05559,5128.56,-0.242568,-0.566725,0.409612,-0.672459,-0.57563,0.75183,-0.02403,2.41,2.49,2.45,2.93,2.99,2.96,2.92,3.88,2.99,3.93,4.04,3.85,3.93,3.86,3.68,2961,12.3375,61668.6035,32.898346,1016.317017,-213.066513,1.85086234436073,2.19390167611124,2.43963172220583,-1.447611,797.200928,169.427658,113.834282,1187.184204,10.510139,"LATERAL"
232,17,7,48.626,5131.8,0.322221,0.682394,0.066498,0.652756,-0.92604,0.33102,-0.05915,5128.58,-0.249833,-0.56111,0.414546,-0.671484,-0.55863,0.75743,-0.02454,2.41,2.49,2.45,2.93,3,2.96,2.92,3.88,2.99,3.93,4.05,3.86,3.93,3.86,3.68,2967,12.3625,61668.6285,32.898346,1016.317017,-213.066513,1.85000047250785,2.19424147539656,2.43976881830621,-1.451865,797.208252,169.352539,113.747086,1187.594116,10.966559,"LATERAL"
233,17,7,48.63,5131.82,0.322057,0.682441,0.066406,0.652797,-0.92425,0.3316,-0.05688,5128.6,-0.256596,-0.555618,0.418914,-0.670789,-0.5527,0.77602,-0.02042,2.41,2.49,2.45,2.93,2.99,2.96,2.92,3.88,2.99,3.93,4.06,3.87,3.94,3.86,3.67,2968,12.366667,61668.632667,32.898346,1016.317017,-213.066513,1.84985830100708,2.19427723052613,2.43981081826555,-1.455269,797.205017,169.341675,113.732864,1187.657471,11.046243,"LATERAL"
234,17,7,48.681,5131.84,0.321909,0.682507,0.066286,0.652813,-0.92693,0.3316,-0.05652,5128.62,-0.263003,-0.550266,0.423238,-0.670005,-0.53878,0.80465,-0.03069,2.41,2.5,2.45,2.93,2.99,2.96,2.92,3.88,2.99,3.93,4.06,3.87,3.94,3.86,3.67,2980,12.416667,61668.682667,32.898346,1016.317017,-213.066513,1.84833396103702,2.19489813591701,2.44003044741755,-1.523636,797.183167,169.288925,113.588654,1188.415161,11.884917,"LATERAL"
235,17,7,48.686,5131.86,0.321451,0.682625,0.066546,0.652889,-0.93002,0.33343,-0.05638,5128.64,-0.269185,-0.544983,0.427035,-0.669458,-0.52143,0.80886,-0.04299,2.41,2.5,2.45,2.93,2.99,2.96,2.92,3.88,2.99,3.93,4.06,3.88,3.95,3.85,3.67,2981,12.420833,61668.686833,32.898346,1016.317017,-213.066513,1.84817838109659,2.1949170921077,2.44009535103779,-1.528767,797.189331,169.29274,113.563858,1188.460815,11.951008,"LATERAL"
236,17,7,48.706,5131.88,0.321391,0.682691,0.066442,0.65286,-0.91893,0.33444,-0.06693,5128.66,-0.275474,-0.539413,0.429862,-0.669601,-0.49894,0.83292,-0.05619,2.41,2.5,2.45,2.93,2.99,2.96,2.92,3.88,2.99,3.93,4.07,3.89,3.95,3.85,3.67,2986,12.441667,61668.707667,32.898346,1016.317017,-213.066513,1.84706260900456,2.19515654337511,2.44046004119376,-1.556334,797.210266,169.341309,113.346298,1188.72937,12.296545,"LATERAL"
237,17,7,48.711,5131.9,0.321041,0.682685,0.066494,0.653033,-0.91759,0.33595,-0.06757,5128.68,-0.282158,-0.533194,0.432353,-0.670195,-0.47881,0.82253,-0.06088,2.41,2.5,2.45,2.93,2.99,2.97,2.92,3.88,2.99,3.93,4.07,3.89,3.95,3.85,3.67,2987,12.445833,61668.711833,32.898346,1016.317017,-213.066513,1.84679689847806,2.19521482172547,2.44054536513096,-1.560746,797.210693,169.361847,113.287956,1188.779907,12.360607,"LATERAL"
238,17,7,48.767,5131.92,0.321064,0.682722,0.066452,0.652987,-0.92439,0.33824,-0.06165,5128.7,-0.288338,-0.52689,0.434238,-0.671331,-0.48776,0.83491,-0.08186,2.41,2.5,2.46,2.93,2.99,2.97,2.91,3.88,3,3.93,4.07,3.9,3.96,3.84,3.67,3001,12.504167,61668.770167,32.898346,1016.317017,-213.066513,1.84326356911118,2.1960001152841,2.44165844273977,-1.547118,797.224304,169.679489,112.507515,1189.452637,13.2059,"LATERAL"
239,17,7,48.772,5131.94,0.321171,0.682689,0.066502,0.652964,-0.92793,0.34246,-0.05919,5128.72,-0.293974,-0.520478,0.436691,-0.672297,-0.45576,0.85372,-0.10092,2.41,2.5,2.46,2.93,2.99,2.96,2.92,3.88,3,3.93,4.07,3.91,3.96,3.84,3.67,3002,12.508333,61668.774333,32.898346,1016.317017,-213.066513,1.84307051065482,2.19608058255996,2.44168246056438,-1.532159,797.227661,169.704239,112.468262,1189.506226,13.255284,"LATERAL"
240,17,7,48.777,5131.96,0.321324,0.682591,0.066742,0.652967,-0.92201,0.34417,-0.06309,5128.74,-0.299008,-0.514274,0.439728,-0.672871,-0.42831,0.87397,-0.11248,2.41,2.5,2.46,2.93,2.99,2.97,2.91,3.88,3,3.93,4.08,3.91,3.96,3.84,3.67,3003,12.5125,61668.7785,32.898346,1016.317017,-213.066513,1.8428705329656,2.19617983432105,2.44169195027497,-1.525875,797.23053,169.722183,112.428246,1189.567017,13.305413,"LATERAL"
241,17,7,48.823,5131.98,0.321616,0.682492,0.066989,0.652901,-0.91942,0.34324,-0.0587,5128.76,-0.304025,-0.507948,0.443076,-0.673232,-0.43609,0.90023,-0.09919,2.41,2.5,2.45,2.93,2.99,2.97,2.91,3.88,3.01,3.93,4.08,3.92,3.97,3.83,3.67,3014,12.558333,61668.824333,32.898346,1016.317017,-213.066513,1.84075274636427,2.19734728147415,2.44167562887093,-1.464087,797.247559,169.81134,111.992058,1190.215698,13.783251,"LATERAL"
242,17,7,48.829,5132,0.321957,0.682447,0.067367,0.652742,-0.92161,0.34113,-0.05837,5128.78,-0.308717,-0.501836,0.446082,-0.673695,-0.40201,0.89682,-0.09666,2.41,2.5,2.46,2.93,2.99,2.97,2.91,3.88,3.01,3.93,4.09,3.93,3.98,3.83,3.67,3016,12.566667,61668.832667,32.898346,1016.317017,-213.066513,1.84043018045603,2.19754412402391,2.44165403929098,-1.465831,797.252258,169.801392,111.931656,1190.333008,13.870445,"LATERAL"
243,17,7,48.846,5132.02,0.322399,0.6824,0.067654,0.652542,-0.92679,0.33773,-0.05725,5128.8,-0.313578,-0.495946,0.448997,-0.673875,-0.38032,0.89066,-0.09537,2.41,2.5,2.46,2.93,2.99,2.96,2.91,3.88,3.01,3.93,4.09,3.93,3.99,3.82,3.67,3020,12.583333,61668.849333,32.898346,1016.317017,-213.066513,1.83978935314397,2.19789606655541,2.44164825985944,-1.461767,797.259888,169.729828,111.816505,1190.567993,14.065412,"LATERAL"
244,17,7,48.851,5132.04,0.322781,0.682375,0.067873,0.652358,-0.92904,0.335,-0.05464,5128.82,-0.318276,-0.490294,0.451914,-0.673859,-0.38932,0.86994,-0.10929,2.41,2.5,2.46,2.93,2.99,2.96,2.91,3.88,3.01,3.93,4.09,3.94,3.99,3.81,3.67,3021,12.5875,61668.8535,32.898346,1016.317017,-213.066513,1.83961762197934,2.19801426659353,2.44162354095396,-1.461469,797.263428,169.704193,111.784256,1190.633789,14.109393,"LATERAL"
245,17,7,48.903,5132.06,0.322823,0.682429,0.068166,0.65225,-0.92829,0.32816,-0.05847,5128.84,-0.322324,-0.485049,0.454863,-0.673747,-0.37774,0.87376,-0.1145,2.41,2.5,2.46,2.93,2.99,2.96,2.9,3.88,3.02,3.93,4.09,3.95,4,3.8,3.67,3033,12.6375,61668.9035,32.898346,1016.317017,-213.066513,1.83829319827256,2.19900636345376,2.44135319489717,-1.461843,797.290466,169.404266,111.628677,1191.369751,14.70494,"LATERAL"
246,17,7,48.908,5132.08,0.322988,0.682458,0.068157,0.652138,-0.92953,0.32045,-0.05587,5128.86,-0.326689,-0.479905,0.458029,-0.673182,-0.33847,0.89539,-0.1145,2.41,2.5,2.46,2.93,2.99,2.96,2.9,3.88,3.02,3.93,4.09,3.95,4,3.8,3.67,3035,12.645833,61668.911833,32.898346,1016.317017,-213.066513,1.83823704097522,2.19916812480281,2.44122614622256,-1.460382,797.295959,169.359955,111.64238,1191.475098,14.766876,"LATERAL"
247,17,7,48.926,5132.1,0.322655,0.682581,0.068678,0.65212,-0.9288,0.32345,-0.05865,5128.88,-0.331044,-0.475132,0.46041,-0.672816,-0.34619,0.90022,-0.12317,2.41,2.5,2.46,2.93,2.99,2.96,2.9,3.88,3.02,3.93,4.09,3.96,4.01,3.79,3.67,3039,12.6625,61668.9285,32.898346,1016.317017,-213.066513,1.83817235667808,2.19939057448926,2.44104492111947,-1.453485,797.288147,169.272751,111.688553,1191.672852,14.919464,"LATERAL"
248,17,7,48.931,5132.12,0.322653,0.682639,0.068442,0.652086,-0.92831,0.32793,-0.05664,5128.9,-0.334283,-0.469619,0.46296,-0.673336,-0.36576,0.90867,-0.11569,2.41,2.5,2.46,2.93,2.99,2.96,2.9,3.88,3.03,3.93,4.09,3.96,4.02,3.79,3.67,3040,12.666667,61668.932667,32.898346,1016.317017,-213.066513,1.83813966370034,2.19945132274454,2.44100319586719,-1.448245,797.286072,169.249512,111.697792,1191.729004,14.96539,"LATERAL"
249,17,7,48.964,5132.14,0.322557,0.682673,0.068085,0.652134,-0.92751,0.33167,-0.05669,5128.92,-0.33813,-0.46493,0.46511,-0.673187,-0.29569,0.89748,-0.1254,2.41,2.5,2.46,2.93,2.99,2.96,2.9,3.88,3.03,3.93,4.1,3.96,4.02,3.78,3.67,3048,12.7,61668.966,32.898346,1016.317017,-213.066513,1.83748192332947,2.19997155323811,2.44084070178896,-1.444243,797.315491,169.112335,111.664291,1192.202271,15.385859,"LATERAL"
250,17,7,48.968,5132.16,0.322376,0.682743,0.067957,0.652164,-0.92545,0.33531,-0.05818,5128.94,-0.342114,-0.460381,0.467616,-0.672564,-0.29421,0.88586,-0.13152,2.41,2.5,2.46,2.93,2.99,2.96,2.9,3.88,3.03,3.93,4.09,3.97,4.03,3.78,3.67,3049,12.704167,61668.970167,32.898346,1016.317017,-213.066513,1.83740203426101,2.20003839447082,2.44081737518317,-1.447318,797.320801,169.09137,111.659546,1192.259277,15.434422,"LATERAL"
251,17,7,49.002,5132.18,0.322361,0.682766,0.067694,0.652175,-0.9209,0.33822,-0.06015,5128.96,-0.345081,-0.456402,0.469865,-0.672193,-0.32957,0.89995,-0.12362,2.41,2.5,2.46,2.93,2.99,2.96,2.89,3.88,3.04,3.93,4.09,3.98,4.03,3.77,3.67,3057,12.7375,61669.0035,32.898346,1016.317017,-213.066513,1.83709482104387,2.20055162977683,2.44048016318439,-1.422496,797.367249,168.94133,111.708618,1192.691406,15.769156,"LATERAL"
252,17,7,49.007,5132.2,0.322267,0.682821,0.067578,0.652175,-0.92337,0.33949,-0.05849,5128.98,-0.34707,-0.452224,0.472386,-0.672226,-0.25652,0.89966,-0.11893,2.41,2.5,2.46,2.92,2.99,2.96,2.89,3.88,3.04,3.93,4.09,3.98,4.04,3.78,3.67,3058,12.741667,61669.007667,32.898346,1016.317017,-213.066513,1.83707150636919,2.2005928391607,2.44045237814824,-1.419665,797.366028,168.931335,111.719841,1192.741577,15.815938,"LATERAL"
253,17,7,49.041,5132.22,0.322249,0.682836,0.067288,0.652198,-0.92875,0.33765,-0.05774,5129,-0.350159,-0.44936,0.47436,-0.671153,-0.26739,0.90295,-0.12463,2.41,2.5,2.46,2.92,2.99,2.96,2.88,3.88,3.04,3.93,4.1,3.98,4.04,3.77,3.67,3066,12.775,61669.041,32.898346,1016.317017,-213.066513,1.83694145015685,2.20089192571782,2.44023051526213,-1.391477,797.403748,168.835541,111.832916,1193.151489,16.210676,"LATERAL"
254,17,7,49.168,5132.24,0.322203,0.682836,0.067018,0.652249,-0.92716,0.33737,-0.05854,5129.02,-0.352756,-0.446322,0.476695,-0.670165,-0.27562,0.91704,-0.12864,2.41,2.5,2.46,2.92,2.99,2.96,2.88,3.88,3.05,3.92,4.1,3.99,4.04,3.77,3.68,3097,12.904167,61669.170167,32.898346,1016.317017,-213.066513,1.83550390133966,2.20135755150841,2.44051896848991,-0.986027,797.631836,168.676025,111.946037,1194.45752,17.812902,"LATERAL"
255,17,7,49.189,5132.26,0.322052,0.682854,0.066948,0.652312,-0.92285,0.33909,-0.06112,5129.04,-0.354493,-0.443351,0.479286,-0.669373,-0.30293,0.92585,-0.1449,2.41,2.5,2.45,2.92,2.99,2.95,2.88,3.88,3.05,3.92,4.1,4,4.05,3.77,3.68,3102,12.925,61669.191,32.898346,1016.317017,-213.066513,1.83554150441709,2.20123532936198,2.4406177840829,-0.904154,797.68335,168.70105,112.026756,1194.584839,18.035881,"LATERAL"
256,17,7,49.195,5132.28,0.322094,0.682849,0.066788,0.652313,-0.9214,0.34181,-0.05668,5129.06,-0.356688,-0.441126,0.481072,-0.668394,-0.21296,0.91035,-0.12779,2.41,2.5,2.45,2.92,2.99,2.95,2.87,3.88,3.05,3.92,4.1,4,4.05,3.77,3.68,3103,12.929167,61669.195167,32.898346,1016.317017,-213.066513,1.83556303541855,2.20121408550356,2.44062727512893,-0.878437,797.691467,168.701752,112.044502,1194.605469,18.071205,"LATERAL"
257,17,7,49.204,5132.3,0.321956,0.682922,0.066887,0.652294,-0.92491,0.33967,-0.0569,5129.08,-0.358858,-0.438884,0.482494,-0.667684,-0.24799,0.90227,-0.12231,2.41,2.5,2.45,2.92,2.99,2.95,2.87,3.88,3.06,3.92,4.1,4.01,4.05,3.76,3.68,3106,12.941667,61669.207667,32.898346,1016.317017,-213.066513,1.83559474856275,2.20117913841195,2.4406447854285,-0.829423,797.71759,168.725784,112.086655,1194.671021,18.170679,"LATERAL"
258,17,7,49.21,5132.32,0.321963,0.68291,0.066756,0.652317,-0.92514,0.34075,-0.05774,5129.1,-0.360772,-0.436899,0.483643,-0.667122,-0.22785,0.89397,-0.12416,2.41,2.5,2.45,2.92,2.99,2.95,2.86,3.88,3.06,3.91,4.1,4.02,4.05,3.76,3.69,3107,12.945833,61669.211833,32.898346,1016.317017,-213.066513,1.83562316264248,2.20116488589876,2.44064399201322,-0.818652,797.726929,168.735321,112.105064,1194.690308,18.200047,"LATERAL"
259,17,7,49.215,5132.34,0.32197,0.682905,0.066608,0.652333,-0.92376,0.34007,-0.05767,5129.12,-0.362497,-0.43533,0.484675,-0.666463,-0.22219,0.89893,-0.12861,2.41,2.5,2.45,2.92,2.99,2.94,2.86,3.88,3.07,3.91,4.1,4.03,4.05,3.76,3.69,3108,12.95,61669.216,32.898346,1016.317017,-213.066513,1.83563428582817,2.20114057565024,2.44066177604779,-0.800119,797.733887,168.747269,112.118324,1194.706909,18.232748,"LATERAL"
260,17,7,49.224,5132.36,0.321816,0.683034,0.066872,0.652248,-0.92341,0.33944,-0.05772,5129.14,-0.363923,-0.434255,0.485772,-0.665589,-0.21094,0.90498,-0.13708,2.41,2.5,2.45,2.92,2.99,2.94,2.85,3.88,3.08,3.9,4.1,4.03,4.05,3.76,3.69,3110,12.958333,61669.224333,32.898346,1016.317017,-213.066513,1.83566993824359,2.20110925879,2.44067375475142,-0.763261,797.737183,168.761963,112.147537,1194.741577,18.289967,"LATERAL"
261,17,7,49.23,5132.38,0.321873,0.683009,0.066832,0.652251,-0.92283,0.33991,-0.05913,5129.16,-0.365069,-0.433561,0.486614,-0.664798,-0.21287,0.91143,-0.13993,2.41,2.5,2.45,2.92,2.99,2.94,2.85,3.88,3.08,3.9,4.1,4.04,4.05,3.76,3.69,3112,12.966667,61669.232667,32.898346,1016.317017,-213.066513,1.83569434409062,2.20106582032587,2.44070320618508,-0.742045,797.760437,168.781235,112.170937,1194.767578,18.34321,"LATERAL"
262,17,7,49.235,5132.4,0.32181,0.682913,0.066884,0.652377,-0.92357,0.34279,-0.05715,5129.18,-0.366168,-0.433034,0.487089,-0.664189,-0.20605,0.90831,-0.14057,2.41,2.5,2.44,2.92,2.99,2.93,2.84,3.88,3.09,3.89,4.1,4.04,4.06,3.75,3.69,3113,12.970833,61669.236833,32.898346,1016.317017,-213.066513,1.83572678434689,2.20105795912181,2.44069416843797,-0.723883,797.761963,168.787277,112.187508,1194.781616,18.362143,"LATERAL"
263,17,7,49.247,5132.42,0.321862,0.682792,0.066824,0.652484,-0.92599,0.33979,-0.05688,5129.2,-0.366975,-0.432909,0.487443,-0.663565,-0.20286,0.89837,-0.14662,2.41,2.5,2.44,2.92,2.99,2.93,2.83,3.88,3.1,3.88,4.1,4.05,4.06,3.75,3.69,3116,12.983333,61669.249333,32.898346,1016.317017,-213.066513,1.83580300043627,2.20099627464779,2.44071467287685,-0.686381,797.778442,168.803589,112.229347,1194.810547,18.423239,"LATERAL"
264,17,7,49.264,5132.44,0.321986,0.682662,0.066849,0.652555,-0.92456,0.33923,-0.06158,5129.22,-0.367291,-0.433126,0.487943,-0.662881,-0.20267,0.8968,-0.14315,2.41,2.5,2.44,2.92,2.99,2.93,2.82,3.87,3.11,3.88,4.1,4.06,4.06,3.75,3.7,3120,13,61669.266,32.898346,1016.317017,-213.066513,1.83592503748709,2.20087863457557,2.44076570679233,-0.635655,797.783081,168.806732,112.275162,1194.804565,18.462791,"LATERAL"
265,17,7,49.27,5132.46,0.322066,0.682555,0.067088,0.652604,-0.92236,0.33972,-0.06074,5129.24,-0.367109,-0.433784,0.488124,-0.662418,-0.19795,0.88572,-0.14228,2.42,2.5,2.44,2.92,2.99,2.92,2.82,3.87,3.11,3.87,4.11,4.06,4.06,3.75,3.7,3121,13.004167,61669.270167,32.898346,1016.317017,-213.066513,1.8358956916446,2.20085227262261,2.44080622645643,-0.629411,797.782288,168.80571,112.268204,1194.801758,18.475435,"LATERAL"
266,17,7,49.323,5132.48,0.322295,0.682422,0.067187,0.652619,-0.92231,0.33648,-0.06328,5129.26,-0.366388,-0.434696,0.48784,-0.662428,-0.19742,0.86569,-0.14118,2.42,2.5,2.44,2.92,3,2.92,2.81,3.87,3.12,3.86,4.1,4.07,4.06,3.75,3.7,3134,13.058333,61669.324333,32.898346,1016.317017,-213.066513,1.8360135285865,2.20034140678698,2.44123916762697,-0.656606,797.700989,168.82103,112.211166,1194.471191,18.29311,"LATERAL"
267,17,7,49.328,5132.5,0.32232,0.682313,0.067446,0.652694,-0.92402,0.33283,-0.0613,5129.28,-0.365035,-0.435973,0.487367,-0.662684,-0.19714,0.84286,-0.14162,2.42,2.5,2.44,2.92,3,2.92,2.8,3.87,3.13,3.85,4.1,4.07,4.05,3.75,3.7,3135,13.0625,61669.3285,32.898346,1016.317017,-213.066513,1.83599180366142,2.20031493032895,2.4412758885472,-0.667406,797.687134,168.824966,112.19162,1194.435059,18.261755,"LATERAL"
268,17,7,49.343,5132.52,0.322505,0.682166,0.067512,0.65275,-0.92468,0.3316,-0.06409,5129.3,-0.362603,-0.437699,0.48649,-0.663526,-0.2051,0.83262,-0.13975,2.42,2.5,2.44,2.92,3,2.92,2.79,3.87,3.13,3.85,4.1,4.07,4.06,3.75,3.7,3139,13.079167,61669.345167,32.898346,1016.317017,-213.066513,1.83589580977862,2.20027323676192,2.441365418721,-0.728847,797.627258,168.831192,112.103157,1194.289063,18.102818,"LATERAL"
269,17,7,49.35,5132.54,0.322656,0.682087,0.06755,0.652754,-0.92313,0.3295,-0.06461,5129.32,-0.35942,-0.439957,0.484945,-0.664893,-0.23303,0.82453,-0.14696,2.42,2.5,2.44,2.92,3,2.92,2.79,3.87,3.14,3.84,4.1,4.07,4.06,3.75,3.7,3141,13.0875,61669.3535,32.898346,1016.317017,-213.066513,1.83584772189368,2.20030399657844,2.44136038561216,-0.765791,797.597107,168.833649,112.048958,1194.206299,17.984577,"LATERAL"
270,17,7,49.401,5132.56,0.322374,0.681977,0.067791,0.652983,-0.92025,0.33133,-0.06815,5129.34,-0.355446,-0.442656,0.482798,-0.666798,-0.2443,0.8331,-0.16122,2.42,2.5,2.44,2.92,3,2.92,2.78,3.87,3.15,3.83,4.1,4.07,4.06,3.75,3.71,3153,13.1375,61669.4035,32.898346,1016.317017,-213.066513,1.83603981373485,2.20041373306199,2.44115582507533,-1.039537,797.400574,168.944717,111.788872,1193.523071,17.022823,"LATERAL"
271,17,7,49.406,5132.58,0.322491,0.682005,0.06784,0.652891,-0.92006,0.33294,-0.07075,5129.36,-0.350923,-0.445479,0.480205,-0.669182,-0.24112,0.85847,-0.16091,2.43,2.5,2.43,2.92,3,2.92,2.77,3.87,3.15,3.83,4.1,4.07,4.06,3.75,3.71,3154,13.141667,61669.407667,32.898346,1016.317017,-213.066513,1.83616340275667,2.20043686251243,2.44107003116538,-1.060919,797.381958,168.958252,111.788605,1193.44751,16.900776,"LATERAL"
272,17,7,49.425,5132.6,0.322473,0.682056,0.067976,0.652833,-0.92139,0.33017,-0.06979,5129.38,-0.345904,-0.448712,0.477556,-0.671527,-0.24731,0.88423,-0.15416,2.43,2.49,2.43,2.92,3.01,2.92,2.76,3.87,3.16,3.82,4.1,4.08,4.06,3.75,3.71,3159,13.1625,61669.4285,32.898346,1016.317017,-213.066513,1.83670920596672,2.20055481112362,2.44067558773838,-1.16376,797.324463,169.012177,111.755196,1193.046265,16.266388,"LATERAL"
273,17,7,49.43,5132.62,0.322663,0.682134,0.068039,0.652651,-0.92243,0.33294,-0.06614,5129.4,-0.340565,-0.45267,0.47505,-0.673374,-0.25016,0.9263,-0.13926,2.43,2.49,2.42,2.92,3.01,2.92,2.75,3.87,3.16,3.81,4.1,4.08,4.06,3.75,3.71,3160,13.166667,61669.432667,32.898346,1016.317017,-213.066513,1.836759962749,2.20057964667388,2.4406254911919,-1.179945,797.316589,169.020447,111.728035,1192.958496,16.134993,"LATERAL"
274,17,7,49.48,5132.64,0.323016,0.682219,0.068224,0.652368,-0.92249,0.337,-0.06473,5129.42,-0.335368,-0.456773,0.472397,-0.675076,-0.27644,0.91902,-0.13203,2.43,2.49,2.42,2.93,3.01,2.92,2.74,3.87,3.17,3.8,4.1,4.08,4.06,3.75,3.71,3172,13.216667,61669.482667,32.898346,1016.317017,-213.066513,1.83769959847169,2.20147239178233,2.43927920688765,-1.386923,797.229492,168.992477,111.48909,1192.032715,14.39594,"LATERAL"
275,17,7,49.484,5132.66,0.323308,0.68235,0.068409,0.652066,-0.92529,0.34206,-0.05952,5129.44,-0.330393,-0.460747,0.468816,-0.677321,-0.30467,0.88206,-0.12266,2.42,2.48,2.41,2.93,3.02,2.92,2.73,3.87,3.17,3.8,4.1,4.08,4.05,3.75,3.71,3173,13.220833,61669.486833,32.898346,1016.317017,-213.066513,1.83771638537275,2.20156140367517,2.43918457673687,-1.401521,797.230591,168.982925,111.450432,1191.956909,14.25189,"LATERAL"
276,17,7,49.504,5132.68,0.323586,0.682457,0.068467,0.651811,-0.92904,0.34007,-0.05931,5129.46,-0.325047,-0.465198,0.464815,-0.679619,-0.30624,0.86339,-0.11539,2.42,2.48,2.41,2.93,3.02,2.92,2.72,3.87,3.18,3.79,4.1,4.08,4.06,3.75,3.71,3178,13.241667,61669.507667,32.898346,1016.317017,-213.066513,1.83802995244223,2.20216072590845,2.43844384832311,-1.46313,797.179626,168.903,111.311325,1191.588745,13.447266,"LATERAL"
277,17,7,49.508,5132.7,0.32361,0.682625,0.068678,0.651601,-0.92882,0.33423,-0.05305,5129.48,-0.318912,-0.470353,0.460793,-0.681713,-0.36421,0.86565,-0.11135,2.42,2.47,2.4,2.94,3.02,2.92,2.72,3.87,3.19,3.79,4.1,4.08,4.06,3.75,3.71,3179,13.245833,61669.511833,32.898346,1016.317017,-213.066513,1.83808268621287,2.20226092994066,2.43831982290544,-1.471647,797.17688,168.886002,111.281876,1191.513184,13.294789,"LATERAL"
278,17,7,49.559,5132.72,0.323733,0.682711,0.068507,0.651467,-0.92955,0.33109,-0.05425,5129.5,-0.312692,-0.475899,0.456376,-0.683714,-0.3316,0.86886,-0.11122,2.42,2.47,2.4,2.95,3.03,2.92,2.71,3.86,3.19,3.78,4.1,4.07,4.05,3.75,3.71,3191,13.295833,61669.561833,32.898346,1016.317017,-213.066513,1.83949535025456,2.20348355684175,2.43640765629813,-1.606828,797.131592,168.586746,111.029366,1190.343018,11.043437,"LATERAL"
279,17,7,49.564,5132.74,0.3238,0.682826,0.068247,0.651341,-0.92705,0.33119,-0.05266,5129.52,-0.306542,-0.481107,0.451834,-0.685868,-0.38466,0.89347,-0.11337,2.42,2.47,2.4,2.95,3.03,2.92,2.7,3.86,3.19,3.78,4.1,4.07,4.06,3.76,3.71,3192,13.3,61669.566,32.898346,1016.317017,-213.066513,1.83963657662685,2.20357200906462,2.43624895012288,-1.61897,797.134399,168.563141,111.013077,1190.238525,10.851601,"LATERAL"
280,17,7,49.584,5132.76,0.323687,0.683004,0.068112,0.651224,-0.9235,0.3309,-0.05296,5129.54,-0.301196,-0.485956,0.447196,-0.687854,-0.34323,0.88152,-0.1024,2.42,2.47,2.39,2.95,3.04,2.92,2.7,3.86,3.2,3.78,4.1,4.07,4.06,3.76,3.7,3197,13.320833,61669.586833,32.898346,1016.317017,-213.066513,1.83997193972334,2.20424503214608,2.43542461620325,-1.658617,797.137451,168.421021,110.849892,1189.823242,9.955453,"LATERAL"
281,17,7,49.59,5132.78,0.323732,0.683149,0.067715,0.651091,-0.92794,0.33289,-0.05298,5129.56,-0.295104,-0.491055,0.442868,-0.689671,-0.44639,0.89854,-0.10856,2.42,2.47,2.39,2.96,3.04,2.92,2.69,3.86,3.21,3.77,4.11,4.06,4.06,3.76,3.7,3198,13.325,61669.591,32.898346,1016.317017,-213.066513,1.84003526798539,2.20439717554955,2.43524471556225,-1.666074,797.142395,168.389938,110.816483,1189.744995,9.774506,"LATERAL"
282,17,7,49.642,5132.8,0.323695,0.683245,0.067378,0.651044,-0.9254,0.33456,-0.05477,5129.58,-0.288634,-0.49655,0.438467,-0.691285,-0.46293,0.86461,-0.12209,2.42,2.47,2.39,2.97,3.05,2.92,2.68,3.86,3.21,3.77,4.1,4.06,4.06,3.76,3.7,3211,13.379167,61669.645167,32.898346,1016.317017,-213.066513,1.84123091352322,2.2057667025741,2.43329919804221,-1.712241,797.220276,168.082245,110.556633,1188.741699,7.705818,"LATERAL"
283,17,7,49.648,5132.82,0.323787,0.683315,0.066908,0.650973,-0.92501,0.33712,-0.055,5129.6,-0.282474,-0.501857,0.433367,-0.693211,-0.44027,0.83241,-0.10967,2.42,2.47,2.39,2.97,3.05,2.92,2.68,3.86,3.21,3.77,4.11,4.05,4.05,3.77,3.7,3212,13.383333,61669.649333,32.898346,1016.317017,-213.066513,1.84128160128563,2.20588868856148,2.4331548770505,-1.709086,797.22876,168.061813,110.528175,1188.675537,7.557293,"LATERAL"
284,17,7,49.665,5132.84,0.323901,0.683322,0.066414,0.65096,-0.92807,0.34174,-0.05732,5129.62,-0.27627,-0.507491,0.428121,-0.694868,-0.46378,0.83074,-0.08522,2.42,2.47,2.39,2.98,3.05,2.92,2.67,3.86,3.22,3.76,4.1,4.04,4.05,3.77,3.68,3216,13.4,61669.666,32.898346,1016.317017,-213.066513,1.84123127810425,2.20633859105982,2.43274619693137,-1.709933,797.25415,167.985809,110.355217,1188.427734,7.028591,"LATERAL"
285,17,7,49.67,5132.86,0.323975,0.683334,0.066081,0.650944,-0.92836,0.34309,-0.05668,5129.64,-0.268982,-0.51379,0.423581,-0.695879,-0.4955,0.85385,-0.08691,2.41,2.47,2.39,2.99,3.06,2.92,2.67,3.86,3.22,3.76,4.1,4.04,4.05,3.77,3.68,3217,13.404167,61669.670167,32.898346,1016.317017,-213.066513,1.8410938815813,2.20643727785919,2.43272235454797,-1.701633,797.25415,167.957901,110.271774,1188.350586,6.896009,"LATERAL"
286,17,7,49.704,5132.88,0.32413,0.683316,0.06566,0.650928,-0.92416,0.34473,-0.05615,5129.66,-0.261295,-0.519821,0.418778,-0.697234,-0.56271,0.8776,-0.11536,2.41,2.48,2.39,3,3.06,2.92,2.66,3.86,3.22,3.76,4.1,4.02,4.05,3.78,3.68,3226,13.441667,61669.707667,32.898346,1016.317017,-213.066513,1.84061881378778,2.20728690810979,2.43214797122421,-1.713409,797.229065,167.786865,109.68853,1187.543945,5.505135,"LATERAL"
287,17,7,49.71,5132.9,0.32418,0.683324,0.065313,0.65093,-0.92252,0.34464,-0.05364,5129.68,-0.254454,-0.525178,0.41294,-0.69923,-0.58194,0.83576,-0.1253,2.42,2.48,2.39,3.01,3.07,2.92,2.66,3.86,3.23,3.76,4.1,4.01,4.05,3.79,3.68,3227,13.445833,61669.711833,32.898346,1016.317017,-213.066513,1.84058849519231,2.20736772609995,2.43208556877711,-1.722849,797.220215,167.7724,109.637619,1187.467896,5.372468,"LATERAL"
288,17,7,49.747,5132.92,0.324363,0.683249,0.06504,0.650945,-0.92294,0.34304,-0.05903,5129.7,-0.248723,-0.529723,0.406532,-0.701614,-0.49573,0.80347,-0.09501,2.42,2.48,2.39,3.02,3.08,2.92,2.66,3.86,3.23,3.76,4.1,4,4.05,3.79,3.68,3236,13.483333,61669.749333,32.898346,1016.317017,-213.066513,1.84000837211632,2.20809610132451,2.43168222068566,-1.791304,797.151917,167.622787,109.14328,1186.890747,4.346275,"LATERAL"
289,17,7,49.752,5132.94,0.324584,0.683189,0.064831,0.650918,-0.9199,0.33949,-0.05127,5129.72,-0.24224,-0.534696,0.399912,-0.703911,-0.57244,0.78207,-0.07765,2.42,2.48,2.39,3.02,3.08,2.92,2.66,3.86,3.23,3.76,4.1,3.99,4.04,3.8,3.68,3237,13.4875,61669.7535,32.898346,1016.317017,-213.066513,1.83998513295436,2.20821297686877,2.431581199274,-1.802637,797.145996,167.599609,109.100441,1186.836182,4.223556,"LATERAL"
290,17,7,49.799,5132.96,0.324596,0.683107,0.064681,0.651013,-0.91087,0.34269,-0.06815,5129.74,-0.235388,-0.540913,0.393024,-0.705363,-0.61408,0.74951,-0.09394,2.41,2.48,2.39,3.03,3.09,2.92,2.66,3.86,3.23,3.76,4.09,3.98,4.04,3.8,3.68,3248,13.533333,61669.799333,32.898346,1016.317017,-213.066513,1.84131628935085,2.20904586487368,2.43008360393388,-1.987642,797.168152,167.354401,109.036621,1186.06604,2.720865,"LATERAL"
291,17,7,49.804,5132.98,0.324698,0.683197,0.064422,0.650894,-0.91663,0.34347,-0.05908,5129.76,-0.228687,-0.547108,0.385507,-0.706936,-0.61159,0.75003,-0.10454,2.41,2.48,2.39,3.04,3.1,2.92,2.66,3.86,3.23,3.76,4.1,3.97,4.03,3.8,3.67,3250,13.541667,61669.807667,32.898346,1016.317017,-213.066513,1.84181495976655,2.20912913602988,2.42974317532416,-2.018161,797.164734,167.311783,109.098709,1185.918579,2.445928,"LATERAL"
