Sample,Hour,Minute,Sec,Stamp,Quat1,Quat2,Quat3,Quat4,AccX,AccY,AccZ,Stamp2,Quat2_1,Quat2_2,Quat2_3,Quat2_4,Acc2_X,Acc2_Y,Acc2_Z,A0,A1,A2,A3,A4,A5,A6,A7,A8,A9,A10,A11,A12,A13,A14,Frame,Time,realTime,BrazoX,BrazoY,BrazoZ,angBrazoX,angBrazoY,angBrazoZ,EspaldaX,EspaldaY,EspaldaZ,refX,refY,refZ,type
2,17,14,46.544,5549.04,0.15156,0.677161,-0.072303,0.716418,-0.94006,0.29531,-0.08072,5545.84,0.10292,-0.713989,0.144721,-0.677261,-0.98499,0.0592,0.04185,2.36,2.5,2.6,2.88,2.98,3.02,2.88,3.9,3.06,3.93,4,3.8,3.9,3.87,3.73,2398,9.991667,62086.544667,33.409351,941.657349,-204.15802,1.79150431363029,2.47951731980778,2.18273345019558,11.815613,814.34314,158.902954,98.909966,1177.640381,-32.282379,"LATERAL"
3,17,14,46.555,5549.06,0.151256,0.677254,-0.072002,0.716424,-0.93567,0.29368,-0.08051,5545.86,0.102922,-0.713463,0.14518,-0.677717,-0.98009,0.05718,0.04133,2.36,2.5,2.6,2.88,2.98,3.02,2.88,3.89,3.06,3.93,4,3.8,3.9,3.86,3.73,2401,10.004167,62086.557167,33.502995,941.899658,-204.320419,1.79111203352162,2.47878797616693,2.18366341221391,11.79562,814.328979,158.878372,98.882195,1177.723633,-32.235229,"LATERAL"
4,17,14,46.567,5549.08,0.151187,0.67736,-0.072005,0.716339,-0.94134,0.29668,-0.07377,5545.88,0.102795,-0.713134,0.145463,-0.678022,-0.98153,0.04642,0.03898,2.36,2.5,2.6,2.88,2.98,3.02,2.88,3.89,3.06,3.94,4,3.8,3.89,3.86,3.74,2404,10.016667,62086.569667,33.594406,942.127686,-204.442047,1.79073841361235,2.47818309909026,2.18445602254566,11.772952,814.311279,158.838333,98.854507,1177.804077,-32.189396,"LATERAL"
5,17,14,46.572,5549.1,0.151008,0.677601,-0.072087,0.716141,-0.9435,0.30334,-0.07261,5545.9,0.102914,-0.712645,0.145862,-0.678433,-0.98492,0.03432,0.03847,2.35,2.5,2.6,2.88,2.98,3.02,2.88,3.89,3.06,3.93,4,3.8,3.9,3.86,3.73,2405,10.020833,62086.573833,33.610714,942.203796,-204.473923,1.79065658836063,2.47802174340106,2.18465930378408,11.756786,814.31134,158.824509,98.842705,1177.835205,-32.18272,"LATERAL"
6,17,14,46.581,5549.12,0.150947,0.677655,-0.072215,0.71609,-0.93574,0.30629,-0.06703,5545.92,0.103019,-0.712117,0.146365,-0.678863,-0.98933,0.03034,0.04269,2.35,2.5,2.6,2.88,2.98,3.02,2.88,3.89,3.06,3.94,4,3.8,3.89,3.86,3.73,2407,10.029167,62086.582167,33.646542,942.339111,-204.515259,1.79046396312372,2.47777602743119,2.18499952817754,11.72677,814.304688,158.785828,98.816475,1177.904175,-32.1563,"LATERAL"
7,17,14,46.587,5549.14,0.150913,0.677756,-0.07239,0.715983,-0.927,0.30894,-0.06187,5545.94,0.103129,-0.7116,0.146843,-0.679284,-0.98931,0.03409,0.03995,2.36,2.5,2.6,2.88,2.98,3.02,2.88,3.89,3.06,3.93,4,3.8,3.9,3.86,3.73,2409,10.0375,62086.5905,33.670719,942.472107,-204.5383,1.79037864880064,2.47757249726751,2.18524774883879,11.707232,814.301697,158.738403,98.807571,1177.970093,-32.140324,"LATERAL"
8,17,14,46.592,5549.16,0.150989,0.678066,-0.072616,0.715651,-0.92707,0.30863,-0.05457,5545.96,0.10344,-0.711106,0.147347,-0.679645,-0.99297,0.0301,0.04124,2.36,2.5,2.6,2.88,2.98,3.02,2.88,3.89,3.06,3.94,4,3.8,3.9,3.86,3.74,2410,10.041667,62086.594667,33.664864,942.521973,-204.535751,1.7903692857653,2.47752200484358,2.1853039968113,11.699176,814.293945,158.718185,98.795868,1177.99939,-32.132278,"LATERAL"
9,17,14,46.597,5549.18,0.151033,0.678279,-0.072752,0.715426,-0.92911,0.30875,-0.05253,5545.98,0.103868,-0.710621,0.147972,-0.679952,-0.99372,0.02407,0.0545,2.35,2.5,2.6,2.88,2.98,3.02,2.88,3.89,3.06,3.93,4,3.8,3.9,3.87,3.73,2411,10.045833,62086.598833,33.658604,942.575867,-204.533264,1.79038722792065,2.47745586167114,2.18536404669421,11.675345,814.293884,158.693573,98.789116,1178.020386,-32.130283,"LATERAL"
10,17,14,46.602,5549.2,0.151199,0.678527,-0.072828,0.715148,-0.93237,0.31213,-0.06349,5546,0.104306,-0.710282,0.148326,-0.680161,-0.98593,0.02837,0.07295,2.35,2.5,2.6,2.88,2.98,3.02,2.88,3.89,3.06,3.93,4,3.8,3.89,3.86,3.74,2412,10.05,62086.603,33.652779,942.627686,-204.523743,1.79039921992498,2.4774358621846,2.18537923997962,11.664371,814.291687,158.663666,98.781647,1178.049927,-32.130665,"LATERAL"
11,17,14,46.611,5549.22,0.151308,0.678601,-0.072951,0.715042,-0.94203,0.31016,-0.07715,5546.02,0.104618,-0.709878,0.148564,-0.680483,-0.97466,0.04201,0.07938,2.35,2.5,2.6,2.88,2.98,3.02,2.88,3.89,3.06,3.93,4,3.79,3.9,3.86,3.73,2414,10.058333,62086.611333,33.626949,942.721924,-204.497696,1.79045067163276,2.47741702498939,2.18537542496845,11.638049,814.290466,158.616699,98.7649,1178.119263,-32.121243,"LATERAL"
12,17,14,46.619,5549.24,0.151086,0.678658,-0.073269,0.715002,-0.94618,0.3012,-0.07068,5546.04,0.104433,-0.709711,0.148426,-0.680716,-0.97015,0.0474,0.07539,2.35,2.5,2.6,2.88,2.98,3.02,2.88,3.89,3.06,3.93,4,3.79,3.89,3.86,3.73,2416,10.066667,62086.619667,33.589966,942.80365,-204.459061,1.79051735929751,2.47746555672978,2.18529531394507,11.602101,814.293884,158.568039,98.741165,1178.1875,-32.118599,"LATERAL"
13,17,14,46.624,5549.26,0.150899,0.678899,-0.073324,0.714808,-0.93996,0.30472,-0.06196,5546.06,0.103667,-0.71001,0.147785,-0.680661,-0.97632,0.03857,0.06597,2.35,2.5,2.6,2.88,2.98,3.02,2.88,3.89,3.06,3.93,4,3.8,3.9,3.86,3.73,2418,10.075,62086.628,33.542023,942.877869,-204.416504,1.79060129411238,2.47752989504574,2.18519111332924,11.582193,814.290833,158.528427,98.710945,1178.249146,-32.119373,"LATERAL"
14,17,14,46.629,5549.28,0.151111,0.679123,-0.073168,0.714565,-0.93035,0.31215,-0.05962,5546.08,0.102877,-0.710344,0.147137,-0.680573,-0.98586,0.02853,0.05945,2.35,2.5,2.6,2.88,2.98,3.02,2.88,3.89,3.06,3.93,4,3.8,3.9,3.87,3.74,2419,10.079167,62086.632167,33.509537,942.909851,-204.390472,1.7906381734267,2.47760002401826,2.18510219105671,11.567165,814.298645,158.505066,98.687431,1178.287598,-32.119778,"LATERAL"
15,17,14,46.638,5549.3,0.151488,0.679313,-0.072946,0.714328,-0.92934,0.31072,-0.06384,5546.1,0.102194,-0.710876,0.146369,-0.680285,-0.98676,0.02497,0.05549,2.35,2.5,2.6,2.88,2.98,3.02,2.88,3.89,3.06,3.93,4,3.8,3.9,3.87,3.74,2421,10.0875,62086.6405,33.443291,942.969299,-204.340652,1.79081659656447,2.47766821594297,2.18495126781069,11.545197,814.302734,158.476913,98.668732,1178.343384,-32.11869,"LATERAL"
16,17,14,46.643,5549.32,0.151807,0.679356,-0.072766,0.714238,-0.93916,0.30373,-0.07089,5546.12,0.101318,-0.711602,0.145425,-0.679859,-0.99214,0.03275,0.06405,2.35,2.5,2.6,2.88,2.98,3.02,2.88,3.89,3.06,3.93,4,3.8,3.9,3.86,3.73,2422,10.091667,62086.644667,33.411457,943.000305,-204.316467,1.79085433286245,2.47771727697406,2.18488364306788,11.532495,814.308472,158.46553,98.644554,1178.371338,-32.119865,"LATERAL"
17,17,14,46.652,5549.34,0.151974,0.679301,-0.072639,0.714267,-0.94306,0.30164,-0.07704,5546.14,0.099589,-0.712956,0.14369,-0.679065,-0.98933,0.0511,0.07713,2.35,2.5,2.6,2.88,2.98,3.02,2.88,3.89,3.06,3.93,4,3.8,3.9,3.87,3.74,2424,10.1,62086.653,33.339653,943.055359,-204.265213,1.79098955704223,2.4778255598933,2.18471086501769,11.510049,814.325073,158.443024,98.6073,1178.428711,-32.123699,"LATERAL"
18,17,14,46.657,5549.36,0.151833,0.679213,-0.072597,0.714385,-0.93659,0.30429,-0.07361,5546.16,0.096003,-0.715688,0.140326,-0.677409,-0.98549,0.0591,0.10184,2.35,2.5,2.6,2.88,2.98,3.02,2.88,3.89,3.06,3.93,3.99,3.8,3.9,3.86,3.74,2425,10.104167,62086.657167,33.307777,943.071533,-204.242264,1.79099657543912,2.4778968487091,2.18463421865976,11.50232,814.332764,158.437317,98.577301,1178.457397,-32.119919,"LATERAL"
19,17,14,46.662,5549.38,0.15176,0.679148,-0.072765,0.714446,-0.93035,0.30741,-0.06857,5546.18,0.089969,-0.719724,0.134796,-0.67508,-0.99121,0.05568,0.13286,2.36,2.5,2.6,2.88,2.98,3.02,2.88,3.89,3.06,3.93,4,3.8,3.9,3.87,3.74,2427,10.1125,62086.6655,33.235821,943.113892,-204.201096,1.79111227732094,2.47795292899093,2.18452402908467,11.47883,814.345886,158.430618,98.536186,1178.499634,-32.113304,"LATERAL"
20,17,14,46.668,5549.4,0.151915,0.679349,-0.072989,0.714199,-0.92808,0.31044,-0.06444,5546.2,0.081576,-0.724854,0.126908,-0.67218,-0.96451,0.05734,0.16106,2.36,2.5,2.6,2.88,2.98,3.02,2.88,3.89,3.06,3.93,4,3.8,3.9,3.86,3.74,2428,10.116667,62086.669667,33.197487,943.136658,-204.183075,1.79117518772848,2.47798656270028,2.18446086448137,11.480709,814.34613,158.424042,98.51358,1178.519165,-32.117603,"LATERAL"
21,17,14,46.673,5549.42,0.152038,0.679276,-0.073012,0.714239,-0.93115,0.30988,-0.06306,5546.22,0.07142,-0.730661,0.116815,-0.668871,-0.95126,0.04053,0.17442,2.36,2.5,2.6,2.88,2.98,3.02,2.88,3.9,3.06,3.94,4,3.8,3.9,3.86,3.74,2429,10.120833,62086.673833,33.159462,943.15387,-204.163315,1.79121441675485,2.47801359073027,2.18441523100116,11.470311,814.353455,158.428131,98.484596,1178.532715,-32.115303,"LATERAL"
22,17,14,46.686,5549.44,0.152173,0.67921,-0.073027,0.714272,-0.9367,0.3072,-0.06297,5546.24,0.061549,-0.736002,0.106239,-0.665752,-0.93696,-0.00882,0.14298,2.36,2.5,2.6,2.88,2.98,3.02,2.88,3.89,3.06,3.93,4,3.8,3.9,3.86,3.74,2432,10.133333,62086.686333,33.047951,943.192688,-204.113541,1.79130764358302,2.47816448280153,2.18421744180754,11.461911,814.372559,158.450027,98.395912,1178.583618,-32.125305,"LATERAL"
23,17,14,46.69,5549.46,0.152146,0.679227,-0.073081,0.714256,-0.93844,0.30589,-0.06053,5546.26,0.053465,-0.740358,0.097095,-0.663012,-0.9593,-0.02537,0.10652,2.36,2.5,2.6,2.88,2.98,3.02,2.88,3.89,3.06,3.94,4,3.79,3.9,3.86,3.74,2433,10.1375,62086.6905,33.008133,943.208313,-204.094788,1.79134298735378,2.47818224354182,2.18418310743218,11.453622,814.380493,158.465302,98.364372,1178.595215,-32.12027,"LATERAL"
24,17,14,46.695,5549.48,0.152064,0.679127,-0.073309,0.714345,-0.93262,0.30558,-0.05607,5546.28,0.047173,-0.744009,0.089516,-0.660464,-0.99836,0.00924,0.09722,2.36,2.5,2.6,2.88,2.98,3.02,2.88,3.89,3.06,3.94,4,3.8,3.9,3.86,3.74,2435,10.145833,62086.698833,32.930332,943.227417,-204.071075,1.79136969198838,2.47817856010039,2.18417479297659,11.456685,814.381165,158.496475,98.293205,1178.609497,-32.101616,"LATERAL"
25,17,14,46.7,5549.5,0.151863,0.679128,-0.07363,0.714354,-0.93483,0.30758,-0.05443,5546.3,0.041853,-0.746987,0.083159,-0.658288,-1.00816,0.03615,0.101,2.36,2.5,2.6,2.88,2.98,3.02,2.88,3.89,3.06,3.94,4,3.8,3.9,3.86,3.74,2436,10.15,62086.703,32.885838,943.240479,-204.057404,1.79141230011176,2.47819168748227,2.18414193416502,11.455868,814.381592,158.508286,98.259308,1178.618408,-32.100769,"LATERAL"
26,17,14,46.711,5549.52,0.151659,0.678939,-0.074038,0.714535,-0.94303,0.30573,-0.0558,5546.32,0.037394,-0.749261,0.07839,-0.656555,-1.03047,0.04422,0.08548,2.36,2.5,2.6,2.88,2.98,3.02,2.88,3.9,3.06,3.93,4,3.8,3.9,3.86,3.74,2438,10.158333,62086.711333,32.800919,943.258179,-204.029755,1.79151460382253,2.4782119433402,2.1840746328379,11.463548,814.377075,158.549484,98.202225,1178.63269,-32.09478,"LATERAL"
27,17,14,46.72,5549.54,0.151439,0.678767,-0.074387,0.714709,-0.94475,0.30329,-0.05579,5546.34,0.034053,-0.75057,0.075411,-0.65559,-0.9981,0.02651,0.06356,2.36,2.5,2.6,2.88,2.98,3.02,2.88,3.89,3.06,3.93,4,3.79,3.9,3.86,3.74,2441,10.170833,62086.723833,32.673222,943.270508,-203.993759,1.79158665093902,2.47820148707959,2.18405270679003,11.466902,814.377991,158.601364,98.095215,1178.641968,-32.064964,"LATERAL"
28,17,14,46.725,5549.56,0.151184,0.678591,-0.074566,0.714911,-0.93602,0.30612,-0.06313,5546.36,0.031695,-0.75107,0.073857,-0.655313,-0.98703,0.02009,0.06531,2.36,2.5,2.6,2.88,2.98,3.02,2.88,3.89,3.06,3.93,4,3.8,3.9,3.86,3.73,2442,10.175,62086.728,32.631325,943.268982,-203.97551,1.79164385873008,2.47822246328919,2.18400510620295,11.467641,814.381897,158.616806,98.071007,1178.647949,-32.055679,"LATERAL"
29,17,14,46.729,5549.58,0.151013,0.678344,-0.074736,0.715163,-0.92487,0.3139,-0.0738,5546.38,0.02952,-0.751228,0.073092,-0.655319,-0.97616,0.04034,0.07703,2.36,2.5,2.6,2.88,2.98,3.02,2.88,3.89,3.06,3.94,4,3.79,3.9,3.87,3.74,2443,10.179167,62086.732167,32.591618,943.272278,-203.968002,1.79163407084257,2.47819036986027,2.18404263584982,11.47218,814.379639,158.637878,98.027611,1178.642334,-32.041199,"LATERAL"
30,17,14,46.734,5549.6,0.151082,0.677937,-0.074984,0.715509,-0.91945,0.32098,-0.0847,5546.4,0.027348,-0.751134,0.072937,-0.655538,-0.96812,0.04806,0.09143,2.35,2.5,2.6,2.88,2.98,3.02,2.88,3.89,3.06,3.93,4,3.79,3.9,3.86,3.74,2444,10.183333,62086.736333,32.552948,943.272339,-203.95137,1.79161717934541,2.47820508644615,2.18403513505907,11.477688,814.382385,158.649979,97.983757,1178.644165,-32.027084,"LATERAL"
31,17,14,46.739,5549.62,0.150968,0.677736,-0.075242,0.715697,-0.92789,0.32486,-0.09389,5546.42,0.025227,-0.750931,0.073369,-0.655807,-0.97264,0.04829,0.09532,2.36,2.5,2.6,2.88,2.98,3.02,2.88,3.9,3.06,3.93,4,3.79,3.9,3.86,3.74,2445,10.1875,62086.7405,32.516949,943.271667,-203.940308,1.79166334249718,2.47819079472065,2.18402890454621,11.484225,814.381409,158.670731,97.962776,1178.646484,-32.013439,"LATERAL"
32,17,14,46.748,5549.64,0.150886,0.677512,-0.075444,0.715904,-0.93848,0.32521,-0.09466,5546.44,0.023557,-0.750609,0.074256,-0.656138,-0.98935,0.04426,0.10359,2.35,2.5,2.6,2.88,2.98,3.02,2.88,3.89,3.06,3.93,4,3.79,3.9,3.86,3.74,2447,10.195833,62086.748833,32.452568,943.261475,-203.914108,1.79164459566271,2.47820591004526,2.18402183615161,11.497715,814.38092,158.707047,97.895195,1178.647217,-31.983017,"LATERAL"
33,17,14,46.753,5549.66,0.150904,0.677182,-0.075522,0.716204,-0.93536,0.31513,-0.08779,5546.46,0.022463,-0.750275,0.075407,-0.656427,-0.99585,0.04604,0.11421,2.35,2.5,2.6,2.88,2.98,3.02,2.88,3.9,3.06,3.94,4,3.79,3.9,3.87,3.74,2448,10.2,62086.753,32.426407,943.253906,-203.895538,1.79160331797148,2.4782245311654,2.1840213838247,11.499164,814.385986,158.731842,97.857407,1178.644531,-31.963493,"LATERAL"
34,17,14,46.761,5549.68,0.15093,0.677055,-0.075359,0.716336,-0.92386,0.30301,-0.07973,5546.48,0.021476,-0.750291,0.076465,-0.656319,-1.00898,0.06105,0.12357,2.35,2.51,2.6,2.88,2.98,3.02,2.88,3.9,3.06,3.93,4,3.79,3.9,3.86,3.73,2450,10.208333,62086.761333,32.380028,943.242981,-203.865829,1.79146652672797,2.47828829709472,2.18401774236312,11.516727,814.386169,158.770599,97.772354,1178.649658,-31.931517,"LATERAL"
35,17,14,46.766,5549.7,0.150784,0.67709,-0.075024,0.716369,-0.91802,0.2981,-0.07274,5546.5,0.020751,-0.750469,0.077333,-0.656038,-1.00296,0.05861,0.1291,2.35,2.5,2.6,2.88,2.98,3.02,2.88,3.89,3.06,3.93,3.99,3.79,3.9,3.86,3.74,2452,10.216667,62086.769667,32.353367,943.229675,-203.839249,1.79133014748003,2.4783134261296,2.18405370773229,11.522075,814.385132,158.814926,97.706314,1178.642334,-31.895157,"LATERAL"
36,17,14,46.771,5549.72,0.150673,0.677114,-0.074973,0.716375,-0.92599,0.29569,-0.0704,5546.52,0.020165,-0.750798,0.078032,-0.655597,-0.98619,0.05115,0.13138,2.35,2.5,2.6,2.88,2.98,3.02,2.88,3.89,3.06,3.94,4,3.79,3.9,3.86,3.74,2453,10.220833,62086.773833,32.338184,943.210754,-203.822052,1.79123049912922,2.47838482764073,2.18402529005853,11.52615,814.377197,158.835861,97.665787,1178.649902,-31.875149,"LATERAL"
37,17,14,46.776,5549.74,0.150399,0.677116,-0.07513,0.716414,-0.93799,0.29607,-0.06836,5546.54,0.019906,-0.751077,0.078685,-0.655207,-0.98284,0.03789,0.13778,2.36,2.5,2.6,2.88,2.98,3.02,2.88,3.89,3.06,3.94,3.99,3.79,3.9,3.86,3.73,2454,10.225,62086.778,32.331585,943.207764,-203.810684,1.79115241556179,2.47841229243117,2.18403237188703,11.52599,814.384277,158.855835,97.635208,1178.647583,-31.86525,"LATERAL"
38,17,14,46.787,5549.76,0.149998,0.677119,-0.075357,0.716472,-0.93954,0.30645,-0.07265,5546.56,0.020163,-0.751351,0.079094,-0.654836,-0.97909,0.03713,0.14375,2.35,2.5,2.6,2.88,2.98,3.02,2.88,3.89,3.06,3.93,3.99,3.78,3.9,3.86,3.73,2457,10.2375,62086.7905,32.323833,943.193848,-203.777695,1.79083264775195,2.47845600447522,2.18413212681061,11.538006,814.37384,158.92598,97.537308,1178.652832,-31.799763,"LATERAL"
39,17,14,46.792,5549.78,0.149576,0.67711,-0.075751,0.716527,-0.9367,0.31152,-0.07104,5546.58,0.020284,-0.751638,0.079182,-0.654491,-0.96694,0.04442,0.15301,2.35,2.51,2.6,2.88,2.98,3.02,2.88,3.89,3.05,3.93,3.99,3.78,3.89,3.85,3.73,2458,10.241667,62086.794667,32.323502,943.197876,-203.770477,1.79073878805244,2.47845982643422,2.18417065357656,11.548689,814.365234,158.950485,97.510361,1178.660278,-31.781149,"LATERAL"
40,17,14,46.797,5549.8,0.149209,0.677228,-0.076113,0.716454,-0.93281,0.31006,-0.06505,5546.6,0.020128,-0.752084,0.078392,-0.654079,-0.97838,0.04546,0.14491,2.35,2.5,2.6,2.89,2.98,3.02,2.88,3.89,3.06,3.93,3.98,3.77,3.89,3.86,3.73,2459,10.245833,62086.798833,32.329201,943.193054,-203.758957,1.79060250310272,2.47849696247914,2.18419400929508,11.555303,814.35968,158.965851,97.477859,1178.667847,-31.759861,"LATERAL"
41,17,14,46.802,5549.82,0.149098,0.677243,-0.076317,0.716441,-0.93621,0.3035,-0.06203,5546.62,0.019693,-0.752261,0.077375,-0.65401,-0.96537,0.05988,0.14927,2.35,2.5,2.6,2.88,2.98,3.02,2.88,3.89,3.06,3.93,3.98,3.77,3.89,3.86,3.73,2460,10.25,62086.803,32.338326,943.200317,-203.753906,1.79047229493885,2.47849051109897,2.18425950413855,11.566041,814.358215,158.985596,97.448448,1178.671875,-31.740305,"LATERAL"
42,17,14,46.807,5549.84,0.149153,0.677245,-0.076375,0.716421,-0.93778,0.29996,-0.0614,5546.64,0.019306,-0.752347,0.076508,-0.654025,-0.96345,0.06046,0.15015,2.35,2.5,2.6,2.88,2.98,3.02,2.88,3.89,3.06,3.93,3.98,3.77,3.89,3.86,3.72,2461,10.254167,62086.807167,32.337559,943.201538,-203.749573,1.7903957690195,2.47847695447731,2.18430804337759,11.565949,814.357788,159.008591,97.427269,1178.67749,-31.719082,"LATERAL"
43,17,14,46.811,5549.86,0.148899,0.677422,-0.076282,0.716317,-0.93509,0.29857,-0.06536,5546.66,0.019126,-0.752502,0.075724,-0.653942,-0.96127,0.0481,0.15053,2.35,2.5,2.6,2.88,2.98,3.02,2.88,3.89,3.06,3.93,3.97,3.77,3.89,3.86,3.72,2462,10.258333,62086.811333,32.354271,943.209351,-203.747131,1.7902341498161,2.47850186003181,2.1843553451682,11.57541,814.355225,159.024292,97.397842,1178.693481,-31.702456,"LATERAL"
44,17,14,46.82,5549.88,0.148836,0.677342,-0.076416,0.716392,-0.93851,0.29743,-0.06845,5546.68,0.01887,-0.752557,0.075245,-0.653942,-0.9631,0.04794,0.14896,2.35,2.5,2.6,2.88,2.98,3.02,2.88,3.89,3.06,3.94,3.97,3.77,3.89,3.86,3.73,2465,10.270833,62086.823833,32.410385,943.221008,-203.731674,1.78984222699961,2.47855402582794,2.18447831658225,11.587784,814.357361,159.076797,97.344933,1178.733887,-31.642962,"LATERAL"
45,17,14,46.828,5549.9,0.14868,0.677263,-0.076597,0.716479,-0.93635,0.3039,-0.06977,5546.7,0.018534,-0.752514,0.07482,-0.65405,-0.96383,0.05805,0.14279,2.35,2.5,2.6,2.88,2.98,3.02,2.88,3.9,3.05,3.94,3.97,3.77,3.89,3.86,3.72,2466,10.275,62086.828,32.434982,943.234619,-203.732605,1.78969693742143,2.47852919312994,2.18456933641363,11.593446,814.358521,159.089279,97.327652,1178.744751,-31.620327,"LATERAL"
46,17,14,46.833,5549.92,0.148489,0.677126,-0.076844,0.716622,-0.93434,0.31405,-0.07363,5546.72,0.017902,-0.7524,0.074458,-0.65424,-0.96669,0.05401,0.13635,2.35,2.5,2.6,2.89,2.98,3.02,2.88,3.9,3.06,3.94,3.97,3.77,3.89,3.86,3.73,2468,10.283333,62086.836333,32.50782,943.25647,-203.731247,1.78939568990674,2.47851649821714,2.18471794630478,11.595985,814.371582,159.113495,97.314835,1178.772339,-31.576767,"LATERAL"
47,17,14,46.837,5549.94,0.148351,0.676942,-0.077077,0.716799,-0.93379,0.31921,-0.07354,5546.74,0.017365,-0.752155,0.074319,-0.654551,-0.97144,0.04592,0.12932,2.35,2.5,2.6,2.89,2.98,3.02,2.88,3.89,3.06,3.93,3.97,3.77,3.89,3.86,3.73,2469,10.2875,62086.8405,32.545612,943.262085,-203.733215,1.7892287183222,2.47851565732502,2.18479385157661,11.609632,814.371338,159.128098,97.305771,1178.784546,-31.555262,"LATERAL"
48,17,14,46.842,5549.96,0.148422,0.676765,-0.077317,0.716925,-0.93044,0.32077,-0.07314,5546.76,0.017394,-0.751736,0.074354,-0.655029,-0.98387,0.04475,0.12545,2.35,2.5,2.6,2.89,2.98,3.02,2.88,3.9,3.05,3.93,3.97,3.77,3.89,3.86,3.72,2470,10.291667,62086.844667,32.58992,943.274109,-203.736465,1.78904771444181,2.47850690965656,2.18488414267701,11.606021,814.384705,159.141632,97.298065,1178.797852,-31.534344,"LATERAL"
49,17,14,46.847,5549.98,0.148512,0.67656,-0.077366,0.717095,-0.92718,0.32014,-0.07359,5546.78,0.017298,-0.751383,0.074403,-0.65543,-0.98711,0.05026,0.12723,2.35,2.5,2.6,2.88,2.98,3.02,2.88,3.9,3.05,3.94,3.97,3.77,3.89,3.86,3.73,2471,10.295833,62086.848833,32.635345,943.291809,-203.741531,1.78886962374061,2.47848554110634,2.18498605842272,11.607737,814.386353,159.147583,97.292809,1178.816284,-31.511108,"LATERAL"
50,17,14,46.853,5550,0.148683,0.676371,-0.077396,0.717235,-0.92693,0.31644,-0.07336,5546.8,0.017311,-0.750904,0.07434,-0.655985,-0.98553,0.05532,0.12265,2.35,2.5,2.6,2.89,2.98,3.02,2.88,3.89,3.05,3.94,3.97,3.77,3.89,3.86,3.73,2472,10.3,62086.853,32.682922,943.303101,-203.745743,1.78870265638167,2.47847920108727,2.18506744228588,11.614879,814.396179,159.150986,97.292473,1178.829346,-31.493296,"LATERAL"
51,17,14,46.866,5550.02,0.148839,0.676191,-0.077328,0.717379,-0.93035,0.31402,-0.07197,5546.82,0.017383,-0.750471,0.074483,-0.656462,-0.98235,0.05615,0.12092,2.35,2.5,2.6,2.88,2.98,3.01,2.88,3.89,3.06,3.94,3.97,3.77,3.89,3.86,3.73,2476,10.316667,62086.869667,32.902905,943.374634,-203.785446,1.78801154213045,2.47833364613105,2.18552654691896,11.627735,814.415771,159.168259,97.315231,1178.890381,-31.408974,"LATERAL"
52,17,14,46.871,5550.04,0.148913,0.676034,-0.077311,0.717514,-0.93185,0.31323,-0.07179,5546.84,0.01775,-0.750069,0.074893,-0.656865,-0.982,0.05497,0.12526,2.35,2.5,2.6,2.89,2.98,3.01,2.88,3.89,3.06,3.94,3.97,3.77,3.89,3.86,3.73,2477,10.320833,62086.873833,32.96109,943.390503,-203.800034,1.78785346938776,2.47827849985895,2.18565390817816,11.629134,814.422607,159.171097,97.330154,1178.906616,-31.384769,"LATERAL"
53,17,14,46.9,5550.06,0.148948,0.676065,-0.077252,0.717483,-0.93239,0.31191,-0.07282,5546.86,0.018408,-0.749736,0.075366,-0.657174,-0.97841,0.05029,0.13409,2.35,2.5,2.6,2.89,2.98,3.02,2.88,3.89,3.05,3.94,3.97,3.77,3.89,3.86,3.73,2484,10.35,62086.903,33.385754,943.508545,-203.928696,1.78696117518701,2.47787631972727,2.18646530252942,11.672852,814.451965,159.174133,97.503838,1178.985474,-31.289831,"LATERAL"
54,17,14,46.907,5550.08,0.148936,0.67601,-0.077205,0.717543,-0.92908,0.30809,-0.07392,5546.88,0.018938,-0.749496,0.075813,-0.657381,-0.96964,0.05584,0.13227,2.35,2.5,2.6,2.88,2.98,3.02,2.88,3.89,3.05,3.94,3.97,3.77,3.89,3.86,3.73,2485,10.354167,62086.907167,33.446434,943.520447,-203.944733,1.78684269990387,2.47784992923454,2.18654509357547,11.672316,814.45697,159.173798,97.531563,1178.998535,-31.281982,"LATERAL"
55,17,14,46.946,5550.1,0.148809,0.676105,-0.077151,0.717485,-0.93263,0.30896,-0.07401,5546.9,0.019487,-0.749307,0.076091,-0.657548,-0.96795,0.06126,0.13121,2.35,2.5,2.6,2.88,2.98,3.01,2.87,3.89,3.06,3.94,3.97,3.77,3.89,3.86,3.73,2495,10.395833,62086.948833,34.120785,943.604492,-204.170547,1.78552539512151,2.47775243703349,2.18722860335482,11.715349,814.523376,159.12149,97.829254,1179.09436,-31.319204,"LATERAL"
56,17,14,46.953,5550.12,0.148732,0.676,-0.077147,0.717601,-0.93931,0.30607,-0.07281,5546.92,0.020122,-0.749112,0.076568,-0.657695,-0.97337,0.05422,0.13161,2.35,2.5,2.6,2.89,2.98,3.01,2.87,3.89,3.05,3.94,3.97,3.76,3.89,3.86,3.73,2496,10.4,62086.953,34.177277,943.609253,-204.191513,1.78541972283713,2.47772538223611,2.18730306154088,11.71824,814.531433,159.108963,97.853683,1179.089722,-31.325247,"LATERAL"
57,17,14,46.978,5550.14,0.148665,0.675868,-0.077114,0.717743,-0.93928,0.30266,-0.07082,5546.94,0.020958,-0.748982,0.077161,-0.657748,-0.97103,0.05228,0.13775,2.35,2.5,2.6,2.89,2.98,3.01,2.86,3.89,3.04,3.95,3.96,3.76,3.89,3.86,3.73,2502,10.425,62086.978,34.537704,943.620483,-204.323349,1.78489144845697,2.47760134141472,2.18766338483681,11.769512,814.561218,159.062668,98.059723,1179.077881,-31.369358,"LATERAL"
58,17,14,46.984,5550.16,0.148496,0.675789,-0.077028,0.717862,-0.93433,0.30345,-0.073,5546.96,0.021721,-0.749049,0.077478,-0.65761,-0.96667,0.05232,0.1396,2.35,2.5,2.6,2.89,2.98,3.01,2.85,3.89,3.04,3.95,3.95,3.76,3.89,3.86,3.73,2504,10.433333,62086.986333,34.643112,943.615173,-204.364487,1.7847744066903,2.47756552120556,2.18775170814353,11.786015,814.575073,159.046219,98.130264,1179.063477,-31.390789,"LATERAL"
59,17,14,47.018,5550.18,0.148404,0.675669,-0.077042,0.717992,-0.93333,0.30607,-0.07221,5546.98,0.02215,-0.749169,0.077688,-0.657434,-0.96526,0.05436,0.13902,2.35,2.5,2.6,2.89,2.98,3,2.85,3.89,3.04,3.95,3.95,3.76,3.89,3.86,3.73,2512,10.466667,62087.019667,35.040855,943.542969,-204.495209,1.78451524017979,2.4774618808121,2.18797218606624,11.842598,814.601074,158.982498,98.452713,1178.973755,-31.466589,"LATERAL"
60,17,14,47.027,5550.2,0.148225,0.675708,-0.077008,0.717995,-0.93394,0.30558,-0.07275,5547,0.0226,-0.749333,0.077785,-0.657221,-0.96716,0.05103,0.13536,2.35,2.5,2.6,2.88,2.98,3,2.85,3.89,3.04,3.95,3.95,3.75,3.89,3.86,3.73,2514,10.475,62087.028,35.144104,943.523071,-204.527298,1.78444848894134,2.47742672644305,2.18803764761049,11.851686,814.599487,158.964645,98.536034,1178.945801,-31.483877,"LATERAL"
61,17,14,47.059,5550.22,0.148105,0.675611,-0.077097,0.718102,-0.93586,0.3042,-0.07281,5547.02,0.022997,-0.749385,0.078154,-0.657104,-0.97416,0.0508,0.13525,2.35,2.5,2.6,2.88,2.98,3,2.85,3.89,3.03,3.95,3.95,3.75,3.89,3.85,3.73,2522,10.508333,62087.061333,35.522469,943.41394,-204.676926,1.78425598920346,2.47717738207031,2.18837851298628,11.837674,814.598755,158.917984,98.860535,1178.799561,-31.5439,"LATERAL"
62,17,14,47.067,5550.24,0.147991,0.675503,-0.077206,0.718216,-0.93537,0.30683,-0.07195,5547.04,0.023366,-0.749369,0.078581,-0.657057,-0.97961,0.05172,0.13593,2.35,2.5,2.6,2.89,2.98,3,2.85,3.89,3.03,3.94,3.95,3.75,3.89,3.86,3.73,2524,10.516667,62087.069667,35.604023,943.39679,-204.718384,1.78418298885641,2.47706837482994,2.18852260290687,11.833426,814.591797,158.913803,98.920204,1178.760254,-31.551752,"LATERAL"
63,17,14,47.11,5550.26,0.147781,0.675455,-0.077356,0.718288,-0.93133,0.30873,-0.07247,5547.06,0.0237,-0.749324,0.078906,-0.657058,-0.97972,0.05429,0.13715,2.35,2.5,2.6,2.89,2.98,3,2.85,3.89,3.03,3.95,3.94,3.75,3.89,3.86,3.74,2534,10.558333,62087.111333,35.940929,943.297058,-204.887955,1.78372659241171,2.47664246011986,2.18916029238724,11.819131,814.609985,158.951492,99.128578,1178.599976,-31.55267,"LATERAL"
64,17,14,47.115,5550.28,0.147568,0.675341,-0.077491,0.718424,-0.93201,0.30802,-0.07347,5547.08,0.023872,-0.749183,0.079332,-0.657161,-0.97754,0.05744,0.13731,2.35,2.5,2.6,2.89,2.98,3,2.85,3.89,3.03,3.95,3.95,3.75,3.88,3.86,3.73,2535,10.5625,62087.1155,35.969662,943.280334,-204.904175,1.7836426878683,2.47663136576793,2.18920837901091,11.825582,814.607117,158.948669,99.133011,1178.582031,-31.556566,"LATERAL"
65,17,14,47.137,5550.3,0.147323,0.675279,-0.077647,0.718516,-0.93323,0.30732,-0.07657,5547.1,0.024105,-0.749103,0.079696,-0.6572,-0.97269,0.05136,0.14049,2.35,2.5,2.6,2.89,2.98,3,2.85,3.89,3.03,3.95,3.95,3.75,3.89,3.86,3.74,2541,10.5875,62087.1405,36.117752,943.185547,-204.99736,1.78323768606732,2.47649894380629,2.18952133857428,11.824192,814.60321,158.980576,99.166611,1178.477295,-31.562836,"LATERAL"
66,17,14,47.158,5550.32,0.147047,0.675258,-0.077843,0.718571,-0.93152,0.30641,-0.08245,5547.12,0.024341,-0.74894,0.08022,-0.657314,-0.97152,0.04954,0.14519,2.35,2.5,2.6,2.89,2.98,3,2.85,3.89,3.03,3.95,3.95,3.76,3.89,3.85,3.73,2546,10.608333,62087.161333,36.16486,943.079163,-205.070526,1.78301661691488,2.47649582548655,2.18962092927648,11.817322,814.580078,159.006714,99.155869,1178.39563,-31.593096,"LATERAL"
67,17,14,47.166,5550.34,0.146757,0.675284,-0.078062,0.718582,-0.93049,0.30654,-0.08098,5547.14,0.024462,-0.748829,0.080574,-0.657392,-0.96849,0.05223,0.14648,2.35,2.5,2.6,2.89,2.98,3,2.85,3.89,3.03,3.95,3.95,3.76,3.89,3.86,3.74,2548,10.616667,62087.169667,36.168343,943.027954,-205.093872,1.78298181171707,2.47653375108702,2.18959711923204,11.825053,814.57135,159.014877,99.152351,1178.363281,-31.613499,"LATERAL"
68,17,14,47.199,5550.36,0.146413,0.675353,-0.078361,0.718555,-0.93018,0.3102,-0.07872,5547.16,0.024495,-0.748915,0.08052,-0.6573,-0.97096,0.05443,0.14028,2.35,2.5,2.6,2.88,2.98,3,2.85,3.89,3.03,3.95,3.95,3.76,3.88,3.86,3.73,2556,10.65,62087.203,36.166012,942.806274,-205.145493,1.78265497975967,2.47687972824029,2.1893838750293,11.820228,814.542297,159.051498,99.061768,1178.232788,-31.696926,"LATERAL"
69,17,14,47.204,5550.38,0.146061,0.675416,-0.078618,0.718539,-0.93277,0.31247,-0.07706,5547.18,0.024506,-0.748786,0.080726,-0.657421,-0.98035,0.05216,0.13131,2.35,2.5,2.6,2.89,2.98,3,2.85,3.89,3.03,3.95,3.95,3.76,3.88,3.85,3.74,2557,10.654167,62087.207167,36.164116,942.777466,-205.14827,1.78260551907421,2.47693039964975,2.18935332182836,11.818093,814.538025,159.054733,99.046074,1178.21582,-31.705313,"LATERAL"
70,17,14,47.237,5550.4,0.145836,0.675489,-0.078811,0.718495,-0.93401,0.31036,-0.07676,5547.2,0.024762,-0.748714,0.080667,-0.6575,-0.9846,0.05064,0.1336,2.35,2.5,2.6,2.89,2.98,3.01,2.85,3.89,3.03,3.95,3.95,3.76,3.88,3.86,3.73,2565,10.6875,62087.2405,36.142742,942.590576,-205.188995,1.78218132463915,2.47732311576611,2.18913413712093,11.810769,814.514465,159.064911,98.903336,1178.11145,-31.79203,"LATERAL"
71,17,14,47.259,5550.42,0.145613,0.675476,-0.078965,0.718536,-0.93248,0.308,-0.07429,5547.22,0.024817,-0.748533,0.080668,-0.657704,-0.98125,0.05061,0.13454,2.35,2.5,2.6,2.89,2.98,3,2.85,3.89,3.03,3.95,3.95,3.76,3.88,3.86,3.74,2570,10.708333,62087.261333,36.130474,942.485413,-205.20932,1.78190255036755,2.47754389524517,2.18902826471001,11.792378,814.510376,159.059143,98.814796,1178.066772,-31.823605,"LATERAL"
72,17,14,47.264,5550.44,0.145446,0.67548,-0.079088,0.718552,-0.92892,0.30615,-0.07397,5547.24,0.024925,-0.748362,0.080696,-0.657891,-0.97878,0.052,0.1307,2.35,2.5,2.6,2.89,2.97,3,2.85,3.89,3.02,3.95,3.95,3.76,3.88,3.85,3.74,2571,10.7125,62087.2655,36.128563,942.463806,-205.216537,1.7818591782701,2.47754704410091,2.18904384185969,11.792385,814.504333,159.059204,98.802155,1178.053101,-31.821611,"LATERAL"
73,17,14,47.298,5550.46,0.145246,0.675584,-0.079228,0.71848,-0.93127,0.30573,-0.07448,5547.26,0.025309,-0.748146,0.080716,-0.65812,-0.97599,0.05001,0.12926,2.35,2.5,2.6,2.89,2.97,3,2.85,3.89,3.02,3.95,3.95,3.76,3.89,3.86,3.74,2579,10.745833,62087.298833,36.157181,942.287292,-205.287323,1.78129630535046,2.47776020334669,2.18906863344786,11.772355,814.476746,159.055054,98.679359,1177.96582,-31.849604,"LATERAL"
74,17,14,47.304,5550.48,0.145127,0.6756,-0.079361,0.718473,-0.93473,0.30638,-0.0746,5547.28,0.025551,-0.747821,0.080953,-0.658451,-0.97243,0.05083,0.12589,2.35,2.5,2.6,2.89,2.97,3,2.84,3.89,3.02,3.95,3.95,3.76,3.88,3.86,3.74,2581,10.754167,62087.307167,36.16925,942.232849,-205.319016,1.78106918818631,2.4777864793263,2.18913983922551,11.762055,814.471863,159.058472,98.630898,1177.938599,-31.847466,"LATERAL"
75,17,14,47.338,5550.5,0.144963,0.675698,-0.079391,0.718412,-0.93591,0.30626,-0.07375,5547.3,0.026007,-0.747337,0.081354,-0.658933,-0.97246,0.0528,0.12141,2.35,2.5,2.6,2.88,2.97,3,2.84,3.88,3.03,3.95,3.96,3.76,3.89,3.86,3.73,2589,10.7875,62087.3405,36.275249,941.947754,-205.470612,1.78003798310193,2.4779441672599,2.18942242447471,11.744143,814.430237,159.073074,98.466209,1177.800659,-31.843233,"LATERAL"
76,17,14,47.344,5550.52,0.144835,0.675715,-0.079522,0.718406,-0.93464,0.30563,-0.07303,5547.32,0.026516,-0.746722,0.081986,-0.659531,-0.97288,0.05464,0.11747,2.35,2.5,2.6,2.88,2.97,2.99,2.84,3.88,3.03,3.95,3.96,3.76,3.89,3.86,3.73,2590,10.791667,62087.344667,36.299477,941.903687,-205.49968,1.77983708923432,2.47794447220804,2.18950846961314,11.743794,814.428223,159.076263,98.437309,1177.77832,-31.835358,"LATERAL"
77,17,14,47.377,5550.54,0.144672,0.675724,-0.07969,0.718413,-0.93501,0.30502,-0.07615,5547.34,0.027187,-0.745897,0.082869,-0.660326,-0.97083,0.05132,0.11122,2.35,2.5,2.6,2.89,2.97,2.99,2.83,3.88,3.03,3.94,3.96,3.76,3.89,3.86,3.73,2598,10.825,62087.378,36.632648,941.456177,-205.796906,1.77787851120056,2.47814291068459,2.19014235274817,11.734381,814.393799,159.10968,98.262527,1177.619751,-31.792074,"LATERAL"
78,17,14,47.383,5550.56,0.144478,0.675831,-0.079821,0.718337,-0.93422,0.3049,-0.07373,5547.36,0.028322,-0.74476,0.084238,-0.661388,-0.97447,0.04524,0.10067,2.34,2.5,2.6,2.89,2.97,2.99,2.83,3.88,3.02,3.94,3.96,3.76,3.89,3.86,3.74,2600,10.833333,62087.386333,36.769482,941.319214,-205.894852,1.77720936607514,2.47820894659862,2.19035896376059,11.729492,814.384338,159.115402,98.222939,1177.571411,-31.780825,"LATERAL"
79,17,14,47.419,5550.58,0.144361,0.675846,-0.079951,0.718331,-0.93262,0.30638,-0.07448,5547.38,0.029845,-0.743443,0.086003,-0.662575,-0.98096,0.04234,0.09499,2.34,2.5,2.6,2.88,2.96,2.99,2.83,3.88,3.02,3.94,3.96,3.76,3.89,3.86,3.74,2608,10.866667,62087.419667,37.49292,940.776855,-206.313705,1.77371595640505,2.47855239642616,2.19147658772584,11.691438,814.333069,159.166245,97.997345,1177.391968,-31.705935,"LATERAL"
80,17,14,47.424,5550.6,0.144287,0.675971,-0.080073,0.718215,-0.93061,0.30818,-0.07361,5547.4,0.031829,-0.741904,0.088013,-0.663942,-0.98776,0.04293,0.09276,2.34,2.5,2.6,2.88,2.96,2.99,2.83,3.88,3.02,3.94,3.96,3.77,3.88,3.86,3.73,2610,10.875,62087.428,37.723164,940.630798,-206.438324,1.77261139436084,2.47866918311741,2.19181647253671,11.676773,814.319458,159.17746,97.924988,1177.35498,-31.682968,"LATERAL"
81,17,14,47.457,5550.62,0.144201,0.676017,-0.08015,0.71818,-0.9319,0.30797,-0.07404,5547.42,0.034173,-0.740152,0.090186,-0.665487,-0.9864,0.04037,0.08646,2.33,2.5,2.59,2.88,2.95,2.99,2.83,3.88,3.02,3.94,3.96,3.76,3.89,3.86,3.73,2617,10.904167,62087.457167,38.676453,940.09259,-206.865112,1.76824204564462,2.47932732697393,2.19293616507542,11.648295,814.291931,159.207626,97.661476,1177.217407,-31.630161,"LATERAL"
82,17,14,47.5,5550.64,0.144096,0.67608,-0.080206,0.718136,-0.93195,0.31105,-0.07314,5547.44,0.037029,-0.738165,0.092681,-0.667197,-0.98516,0.03798,0.08132,2.31,2.5,2.59,2.87,2.94,2.99,2.83,3.88,3.02,3.94,3.96,3.76,3.89,3.85,3.74,2628,10.95,62087.503,40.412872,939.179626,-207.439102,1.76060002835052,2.48106403055105,2.19420504901642,11.600801,814.255188,159.24321,97.216904,1176.934692,-31.665426,"LATERAL"
83,17,14,47.508,5550.66,0.143971,0.676239,-0.080198,0.718012,-0.93342,0.30805,-0.07213,5547.46,0.040301,-0.736156,0.095395,-0.668842,-0.9834,0.047,0.0855,2.29,2.5,2.59,2.87,2.93,2.99,2.84,3.88,3.02,3.94,3.96,3.76,3.89,3.86,3.73,2630,10.958333,62087.511333,40.723,939.009155,-207.526382,1.75930054833169,2.48140486080079,2.19436299082871,11.588609,814.241699,159.245544,97.156975,1176.887085,-31.669804,"LATERAL"
84,17,14,47.513,5550.68,0.143887,0.676262,-0.080209,0.718006,-0.9329,0.30662,-0.07136,5547.48,0.043392,-0.73432,0.097904,-0.670303,-0.98003,0.05884,0.0938,2.28,2.5,2.59,2.87,2.93,3,2.83,3.88,3.02,3.94,3.96,3.77,3.89,3.86,3.74,2631,10.9625,62087.5155,40.868084,938.924683,-207.575989,1.75870431555749,2.48158154580402,2.1944136196231,11.585006,814.237244,159.248627,97.132271,1176.863159,-31.686396,"LATERAL"
85,17,14,47.537,5550.7,0.143798,0.676394,-0.080222,0.717898,-0.93225,0.30605,-0.07704,5547.5,0.04598,-0.732598,0.099933,-0.671714,-0.97811,0.06175,0.09977,2.27,2.5,2.58,2.87,2.92,3,2.84,3.88,3.03,3.94,3.96,3.77,3.89,3.86,3.74,2637,10.9875,62087.5405,41.740875,938.413147,-207.855576,1.75512956039788,2.48263498718866,2.19470884761043,11.576193,814.200867,159.243469,96.98661,1176.717041,-31.767443,"LATERAL"
86,17,14,47.542,5550.72,0.14373,0.676466,-0.080269,0.717839,-0.93546,0.30465,-0.07387,5547.52,0.048226,-0.730934,0.10168,-0.673105,-0.97798,0.05852,0.09222,2.27,2.5,2.58,2.87,2.92,2.99,2.84,3.88,3.03,3.94,3.96,3.76,3.89,3.86,3.74,2638,10.991667,62087.544667,41.874519,938.32959,-207.890869,1.75456024821117,2.48282854679499,2.19472726736733,11.571331,814.204346,159.244339,96.956123,1176.688965,-31.783628,"LATERAL"
87,17,14,47.579,5550.74,0.143649,0.676533,-0.080307,0.717788,-0.93703,0.30746,-0.07178,5547.54,0.050406,-0.729359,0.103431,-0.674386,-0.98664,0.04919,0.08848,2.26,2.5,2.58,2.87,2.92,2.99,2.84,3.88,3.03,3.94,3.96,3.77,3.89,3.86,3.73,2647,11.029167,62087.582167,43.108505,937.676208,-208.263855,1.74949961323994,2.48432544990059,2.19509189034302,11.547381,814.175476,159.220367,96.727165,1176.478638,-31.944036,"LATERAL"
88,17,14,47.592,5550.76,0.143542,0.676763,-0.080297,0.717594,-0.93666,0.30683,-0.07082,5547.56,0.052673,-0.7279,0.105218,-0.675512,-0.98861,0.05076,0.09227,2.26,2.5,2.58,2.87,2.92,2.99,2.84,3.88,3.03,3.94,3.96,3.76,3.89,3.86,3.74,2650,11.041667,62087.594667,43.488632,937.517456,-208.393417,1.74803996172184,2.4846344322787,2.19531304383782,11.537296,814.168152,159.212097,96.683601,1176.420166,-31.987467,"LATERAL"
89,17,14,47.618,5550.78,0.143475,0.676822,-0.080376,0.717542,-0.9326,0.30559,-0.07087,5547.58,0.054705,-0.726636,0.106923,-0.676443,-0.99275,0.05549,0.09534,2.26,2.5,2.58,2.87,2.92,3,2.84,3.88,3.03,3.94,3.96,3.77,3.89,3.85,3.74,2656,11.066667,62087.619667,44.158802,937.301575,-208.618546,1.74573104833791,2.48509481224711,2.19568322195989,11.515033,814.146179,159.180084,96.678612,1176.337646,-32.086143,"LATERAL"
90,17,14,47.626,5550.8,0.143377,0.676939,-0.080493,0.717439,-0.93138,0.30596,-0.07082,5547.6,0.056236,-0.725738,0.108358,-0.677052,-0.99165,0.067,0.09729,2.26,2.5,2.58,2.87,2.92,3,2.84,3.88,3.03,3.94,3.96,3.77,3.89,3.86,3.74,2658,11.075,62087.628,44.323318,937.277344,-208.688217,1.74522964493158,2.48513542464655,2.1958227040764,11.498546,814.146179,159.168259,96.694801,1176.323975,-32.119404,"LATERAL"
91,17,14,47.658,5550.82,0.143271,0.677002,-0.080642,0.717383,-0.93562,0.30613,-0.06789,5547.62,0.057153,-0.725166,0.109375,-0.677425,-0.9869,0.06913,0.09945,2.26,2.5,2.58,2.87,2.92,3,2.84,3.87,3.03,3.94,3.96,3.77,3.89,3.85,3.74,2666,11.108333,62087.661333,44.824505,937.260193,-208.947067,1.74401491082244,2.48490299059754,2.19649548326016,11.46501,814.162048,159.115402,96.837822,1176.277222,-32.203884,"LATERAL"
92,17,14,47.667,5550.84,0.14312,0.677054,-0.080818,0.717345,-0.93759,0.30465,-0.07042,5547.64,0.057469,-0.724886,0.110039,-0.67759,-0.98598,0.06081,0.09865,2.25,2.5,2.58,2.87,2.92,3,2.84,3.88,3.03,3.94,3.96,3.77,3.89,3.85,3.74,2668,11.116667,62087.669667,44.917545,937.285095,-209.01741,1.74388269250268,2.48477254295474,2.19667561527921,11.46024,814.164551,159.099228,96.892006,1176.280151,-32.228642,"LATERAL"
93,17,14,47.698,5550.86,0.142972,0.677141,-0.08098,0.717274,-0.93464,0.30566,-0.06979,5547.66,0.057441,-0.724938,0.110403,-0.677479,-0.98444,0.05418,0.09317,2.25,2.5,2.58,2.87,2.92,3,2.84,3.88,3.03,3.94,3.96,3.77,3.89,3.86,3.74,2675,11.145833,62087.698833,45.137966,937.398804,-209.234955,1.74376115049373,2.4841246931091,2.19737882457746,11.455444,814.197693,159.03743,97.07592,1176.272705,-32.275517,"LATERAL"
94,17,14,47.707,5550.88,0.142794,0.677167,-0.081209,0.717258,-0.93445,0.30706,-0.07223,5547.68,0.057322,-0.724917,0.110943,-0.677423,-0.9839,0.05338,0.0878,2.26,2.5,2.58,2.87,2.92,3,2.84,3.88,3.03,3.94,3.96,3.77,3.89,3.86,3.74,2677,11.154167,62087.707167,45.188992,937.43396,-209.291443,1.74376700406178,2.48392439916311,2.19758070946336,11.459352,814.197998,159.025436,97.129128,1176.272949,-32.281151,"LATERAL"
95,17,14,47.737,5550.9,0.142553,0.67723,-0.081425,0.717223,-0.93391,0.30662,-0.07068,5547.7,0.057131,-0.725058,0.111283,-0.677232,-0.98361,0.05113,0.08241,2.26,2.5,2.58,2.87,2.92,3,2.84,3.88,3.03,3.94,3.96,3.77,3.88,3.85,3.74,2685,11.1875,62087.7405,45.300152,937.625305,-209.496887,1.74408630295652,2.48287955110405,2.19853067868228,11.479187,814.209961,159.001358,97.336952,1176.279419,-32.248539,"LATERAL"
96,17,14,47.742,5550.92,0.142352,0.677239,-0.08168,0.717225,-0.93497,0.30725,-0.06996,5547.72,0.056707,-0.725161,0.111613,-0.677104,-0.98291,0.04944,0.07767,2.26,2.51,2.58,2.87,2.92,3,2.84,3.88,3.03,3.94,3.96,3.78,3.89,3.86,3.73,2686,11.191667,62087.744667,45.309212,937.643066,-209.518036,1.7441058158277,2.48277623293076,2.19862891281383,11.485077,814.208557,158.998138,97.352448,1176.281006,-32.24353,"LATERAL"
97,17,14,47.779,5550.94,0.142142,0.67721,-0.081923,0.717266,-0.93776,0.30565,-0.06878,5547.74,0.0563,-0.72528,0.111844,-0.676971,-0.98251,0.04208,0.07523,2.26,2.5,2.58,2.87,2.92,3,2.84,3.88,3.03,3.94,3.96,3.77,3.89,3.86,3.74,2695,11.229167,62087.782167,45.356506,937.806152,-209.61702,1.74452935924916,2.48205113272834,2.19921576975527,11.534859,814.235779,158.998428,97.528557,1176.323364,-32.189312,"LATERAL"
98,17,14,47.785,5550.96,0.141883,0.67721,-0.082175,0.717289,-0.93665,0.3062,-0.06798,5547.76,0.056389,-0.725454,0.111786,-0.676787,-0.98474,0.03938,0.07406,2.26,2.5,2.57,2.86,2.92,3,2.84,3.88,3.03,3.94,3.96,3.77,3.89,3.86,3.74,2696,11.233333,62087.786333,45.357746,937.820984,-209.618195,1.74455033581103,2.48198024141077,2.19928044517446,11.539534,814.235291,159.004562,97.536858,1176.328857,-32.17189,"LATERAL"
99,17,14,47.816,5550.98,0.141618,0.67714,-0.082439,0.717377,-0.93312,0.30818,-0.06721,5547.78,0.056292,-0.725567,0.111963,-0.676645,-0.98694,0.03889,0.07577,2.24,2.5,2.57,2.86,2.92,3,2.84,3.88,3.03,3.94,3.96,3.77,3.89,3.86,3.74,2704,11.266667,62087.819667,45.295963,937.902527,-209.523132,1.7450834931908,2.48181633856635,2.19925617266682,11.585385,814.25116,159.043518,97.632233,1176.374023,-32.087261,"LATERAL"
100,17,14,47.838,5551,0.141412,0.677073,-0.082671,0.717454,-0.93096,0.31022,-0.06874,5547.8,0.056326,-0.725751,0.111639,-0.676498,-0.98326,0.04548,0.07645,2.22,2.5,2.57,2.86,2.91,3,2.84,3.88,3.03,3.94,3.96,3.77,3.89,3.86,3.74,2709,11.2875,62087.8405,45.208889,937.914368,-209.412247,1.74563734518454,2.48193219325518,2.19893896928973,11.613509,814.266846,159.070587,97.710274,1176.409546,-32.052155,"LATERAL"
101,17,14,47.846,5551.02,0.141203,0.677013,-0.082833,0.717533,-0.9319,0.30976,-0.06843,5547.82,0.056145,-0.725887,0.111281,-0.676427,-0.97832,0.04987,0.07738,2.2,2.51,2.58,2.86,2.91,3,2.84,3.88,3.03,3.94,3.96,3.77,3.88,3.86,3.74,2711,11.295833,62087.848833,45.180878,937.904785,-209.367264,1.7458177163544,2.48199706493114,2.19880787790287,11.62834,814.268799,159.072784,97.735016,1176.408081,-32.042072,"LATERAL"
102,17,14,47.879,5551.04,0.141034,0.676937,-0.082936,0.717626,-0.93321,0.30973,-0.06972,5547.84,0.056169,-0.726013,0.111044,-0.676328,-0.97813,0.05094,0.07673,2.19,2.51,2.58,2.86,2.91,2.99,2.84,3.88,3.03,3.94,3.96,3.77,3.89,3.86,3.73,2719,11.329167,62087.882167,45.027493,937.882568,-209.194763,1.74661650442714,2.48221438518789,2.19829773206377,11.663823,814.292908,159.102814,97.817955,1176.421265,-31.99774,"LATERAL"
103,17,14,47.884,5551.06,0.140898,0.676935,-0.083029,0.717644,-0.93525,0.30823,-0.06979,5547.86,0.056367,-0.72626,0.110676,-0.676106,-0.97709,0.0515,0.08006,2.18,2.51,2.58,2.86,2.91,3,2.84,3.88,3.03,3.94,3.96,3.77,3.89,3.86,3.74,2720,11.333333,62087.886333,45.006237,937.879028,-209.177307,1.74671047501994,2.48223895515759,2.19823863998371,11.674494,814.291809,159.097214,97.824211,1176.42041,-31.996101,"LATERAL"
104,17,14,47.918,5551.08,0.140861,0.676865,-0.083043,0.717716,-0.93405,0.31002,-0.07173,5547.88,0.056242,-0.726454,0.110346,-0.675963,-0.97944,0.05294,0.07938,2.18,2.51,2.58,2.86,2.91,3,2.84,3.88,3.03,3.94,3.96,3.77,3.89,3.86,3.74,2728,11.366667,62087.919667,44.794544,937.847839,-209.018494,1.74754067721185,2.48238464612159,2.1977884721063,11.705523,814.310303,159.140274,97.860191,1176.420654,-31.943951,"LATERAL"
105,17,14,47.924,5551.1,0.140873,0.676997,-0.083058,0.717587,-0.93089,0.3099,-0.07077,5547.9,0.056019,-0.726646,0.109927,-0.675843,-0.98373,0.05753,0.07469,2.18,2.51,2.58,2.86,2.91,3,2.84,3.88,3.03,3.94,3.96,3.77,3.89,3.86,3.74,2730,11.375,62087.928,44.749374,937.846619,-208.983032,1.74772097480206,2.48239401865804,2.19771320428259,11.707591,814.318726,159.147644,97.868202,1176.419434,-31.928171,"LATERAL"
106,17,14,47.958,5551.12,0.140859,0.676909,-0.083028,0.717676,-0.93316,0.30865,-0.07003,5547.92,0.055728,-0.726851,0.109586,-0.675702,-0.98666,0.05777,0.07382,2.18,2.52,2.58,2.86,2.91,3,2.84,3.88,3.04,3.94,3.96,3.77,3.89,3.86,3.74,2738,11.408333,62087.961333,44.57848,937.869324,-208.883469,1.74840551757685,2.48236789833292,2.19748970722112,11.73845,814.328552,159.155609,97.897629,1176.423706,-31.893332,"LATERAL"
107,17,14,47.963,5551.14,0.140853,0.67686,-0.082958,0.717732,-0.93637,0.30542,-0.06815,5547.94,0.055429,-0.727034,0.109303,-0.675575,-0.98326,0.05659,0.07261,2.19,2.52,2.58,2.86,2.91,3,2.84,3.88,3.04,3.94,3.96,3.77,3.89,3.86,3.74,2739,11.4125,62087.9655,44.561291,937.869995,-208.875015,1.74846663125345,2.482378609015,2.19745641379461,11.742948,814.321716,159.162247,97.899338,1176.429688,-31.890545,"LATERAL"
108,17,14,47.998,5551.16,0.140735,0.676872,-0.082893,0.717751,-0.93429,0.30397,-0.07132,5547.96,0.055402,-0.727147,0.109058,-0.675495,-0.98071,0.0509,0.07023,2.19,2.52,2.58,2.86,2.91,3,2.84,3.88,3.03,3.94,3.97,3.77,3.89,3.86,3.74,2747,11.445833,62087.998833,44.506287,937.876953,-208.834274,1.74873194337723,2.4823508426548,2.19738748400056,11.723636,814.331909,159.17482,97.921967,1176.42627,-31.870544,"LATERAL"
109,17,14,48.006,5551.18,0.140658,0.676814,-0.082937,0.717816,-0.93243,0.30685,-0.07195,5547.98,0.055335,-0.727288,0.109029,-0.675354,-0.98247,0.04735,0.06787,2.2,2.52,2.58,2.86,2.91,3,2.84,3.88,3.04,3.94,3.97,3.77,3.89,3.86,3.74,2749,11.454167,62088.007167,44.514866,937.873291,-208.834656,1.74869747471178,2.48236305670443,2.19738767424451,11.720415,814.328308,159.173538,97.921005,1176.427979,-31.86857,"LATERAL"
110,17,14,48.038,5551.2,0.140624,0.676946,-0.083,0.717691,-0.93225,0.30828,-0.07139,5548,0.0559,-0.727298,0.108866,-0.675323,-0.98356,0.0474,0.06991,2.2,2.52,2.59,2.86,2.91,3,2.84,3.88,3.04,3.94,3.97,3.77,3.89,3.86,3.74,2757,11.4875,62088.0405,44.551712,937.850708,-208.796387,1.74858902487744,2.48249774805343,2.19729013815899,11.702438,814.316406,159.189957,97.924438,1176.424927,-31.858124,"LATERAL"
111,17,14,48.043,5551.22,0.140521,0.676902,-0.083046,0.717748,-0.93422,0.30617,-0.07057,5548.02,0.055969,-0.72736,0.108831,-0.675257,-0.98244,0.05183,0.07359,2.2,2.52,2.59,2.86,2.91,3,2.84,3.88,3.04,3.94,3.96,3.77,3.89,3.86,3.74,2758,11.491667,62088.044667,44.55352,937.848389,-208.789963,1.74857900777654,2.48251817148535,2.19727299147968,11.69483,814.318726,159.197327,97.920815,1176.415405,-31.864033,"LATERAL"
112,17,14,48.077,5551.24,0.140363,0.676842,-0.083128,0.717826,-0.93302,0.30402,-0.07293,5548.04,0.055925,-0.727397,0.10871,-0.675239,-0.98221,0.05491,0.0765,2.21,2.52,2.59,2.86,2.91,3,2.84,3.88,3.04,3.94,3.96,3.77,3.9,3.86,3.74,2766,11.525,62088.078,44.530991,937.799988,-208.711334,1.7485372242318,2.48279517962885,2.19700594214487,11.640708,814.314819,159.217636,97.883125,1176.405884,-31.859812,"LATERAL"
113,17,14,48.12,5551.26,0.140152,0.676831,-0.083195,0.717869,-0.93361,0.30307,-0.07218,5548.06,0.056195,-0.727581,0.108148,-0.675109,-0.98223,0.05279,0.07887,2.21,2.52,2.59,2.86,2.91,3,2.85,3.88,3.04,3.94,3.97,3.77,3.9,3.86,3.73,2777,11.570833,62088.123833,44.5173,937.784546,-208.665283,1.74835178571006,2.48294999419428,2.19691605828016,11.628489,814.263855,159.233643,97.810684,1176.402588,-31.847927,"LATERAL"
114,17,14,48.128,5551.28,0.140005,0.676792,-0.08334,0.717918,-0.93347,0.30507,-0.07237,5548.08,0.056141,-0.727583,0.108123,-0.675115,-0.98444,0.04998,0.07928,2.22,2.52,2.58,2.86,2.91,3,2.85,3.88,3.04,3.94,3.96,3.76,3.91,3.85,3.73,2778,11.575,62088.128,44.51852,937.786255,-208.665787,1.74831114360958,2.48297195997571,2.19690854621285,11.625954,814.262207,159.227859,97.798737,1176.403442,-31.853907,"LATERAL"
115,17,14,48.133,5551.3,0.139864,0.676728,-0.083481,0.717989,-0.93253,0.30697,-0.07335,5548.1,0.056056,-0.72774,0.10792,-0.674986,-0.98378,0.05563,0.07919,2.22,2.51,2.58,2.86,2.92,3,2.85,3.88,3.04,3.94,3.96,3.75,3.91,3.85,3.73,2780,11.583333,62088.136333,44.51215,937.795227,-208.667038,1.74832565702054,2.48294527700629,2.19693043195824,11.614797,814.261475,159.239197,97.796074,1176.404785,-31.851809,"LATERAL"
116,17,14,48.158,5551.32,0.139766,0.6767,-0.083584,0.718023,-0.93443,0.30638,-0.07171,5548.12,0.055981,-0.727742,0.107989,-0.674978,-0.9826,0.06037,0.08116,2.22,2.51,2.58,2.86,2.92,3,2.85,3.88,3.04,3.94,3.96,3.75,3.91,3.85,3.73,2786,11.608333,62088.161333,44.473808,937.824463,-208.683121,1.74837108173331,2.4828846103748,2.19697564045767,11.596861,814.244263,159.239578,97.768585,1176.411011,-31.865589,"LATERAL"
117,17,14,48.2,5551.34,0.139641,0.676665,-0.083707,0.718065,-0.93412,0.30542,-0.07127,5548.14,0.055807,-0.72778,0.108032,-0.674945,-0.98314,0.05399,0.08165,2.23,2.51,2.58,2.86,2.92,3,2.85,3.88,3.04,3.94,3.96,3.75,3.91,3.85,3.73,2796,11.65,62088.203,44.328686,937.962402,-208.625763,1.74889535485059,2.48297538717932,2.19669085807423,11.596631,814.247681,159.209106,97.749741,1176.434448,-31.975094,"LATERAL"
118,17,14,48.209,5551.36,0.139439,0.676698,-0.083858,0.718056,-0.9333,0.30523,-0.07087,5548.16,0.055805,-0.727906,0.107852,-0.674839,-0.9873,0.04923,0.08173,2.23,2.51,2.58,2.87,2.92,3,2.85,3.88,3.04,3.94,3.96,3.75,3.92,3.85,3.73,2798,11.658333,62088.211333,44.260262,938.002808,-208.583679,1.74918962426028,2.48302464655898,2.19653247897534,11.593838,814.249023,159.195984,97.758362,1176.43811,-32.005661,"LATERAL"
119,17,14,48.214,5551.38,0.139271,0.676697,-0.084036,0.718069,-0.93218,0.30558,-0.06958,5548.18,0.055533,-0.728097,0.107715,-0.674676,-0.99187,0.05544,0.09143,2.24,2.51,2.58,2.87,2.92,3,2.85,3.88,3.04,3.94,3.96,3.75,3.92,3.85,3.73,2799,11.6625,62088.2155,44.221752,938.028015,-208.565399,1.74936100367513,2.48302430665126,2.19646975140457,11.595805,814.251404,159.193924,97.76593,1176.442017,-32.018436,"LATERAL"
120,17,14,48.237,5551.4,0.139197,0.676778,-0.084202,0.717987,-0.93298,0.30662,-0.07078,5548.2,0.054858,-0.728704,0.107316,-0.67414,-0.97545,0.06492,0.09696,2.24,2.51,2.58,2.87,2.92,3,2.85,3.88,3.04,3.94,3.96,3.75,3.92,3.85,3.74,2805,11.6875,62088.2405,43.94651,938.170715,-208.466476,1.75050559014942,2.48308015053343,2.19598999252734,11.596887,814.274231,159.149078,97.802254,1176.471313,-32.128304,"LATERAL"
121,17,14,48.242,5551.42,0.139124,0.676759,-0.084299,0.718008,-0.93319,0.3057,-0.06939,5548.22,0.053797,-0.729522,0.106741,-0.673432,-0.97904,0.06117,0.09319,2.24,2.51,2.58,2.87,2.92,3,2.85,3.89,3.04,3.94,3.96,3.75,3.92,3.85,3.73,2806,11.691667,62088.244667,43.890644,938.204102,-208.461029,1.75073733525567,2.48306072324716,2.19592386911207,11.599939,814.281372,159.139313,97.810387,1176.480347,-32.154381,"LATERAL"
122,17,14,48.279,5551.44,0.138993,0.676727,-0.084438,0.718048,-0.93454,0.30451,-0.07005,5548.24,0.052135,-0.73044,0.105725,-0.672727,-0.98242,0.06461,0.09872,2.24,2.51,2.58,2.87,2.92,3,2.85,3.88,3.04,3.94,3.96,3.75,3.92,3.85,3.73,2815,11.729167,62088.282167,43.169724,938.581482,-208.348557,1.75358671027951,2.48254979889306,2.19537964674071,11.651981,814.323669,159.049179,97.878357,1176.522217,-32.353355,"LATERAL"
123,17,14,48.284,5551.46,0.138812,0.676813,-0.084522,0.717992,-0.93563,0.30488,-0.06738,5548.26,0.049993,-0.731613,0.104355,-0.671828,-0.98036,0.06321,0.1189,2.24,2.51,2.58,2.87,2.92,3,2.85,3.88,3.04,3.94,3.97,3.76,3.92,3.85,3.73,2816,11.733333,62088.286333,43.066826,938.622864,-208.332855,1.75399915442925,2.48245210744796,2.19532376707827,11.657303,814.327271,159.041473,97.893089,1176.526367,-32.365517,"LATERAL"
124,17,14,48.321,5551.48,0.138716,0.676739,-0.084666,0.718063,-0.93736,0.3058,-0.06888,5548.28,0.04789,-0.732983,0.103181,-0.670669,-0.97355,0.05568,0.12451,2.24,2.51,2.58,2.87,2.92,3,2.85,3.88,3.04,3.94,3.96,3.76,3.92,3.85,3.73,2825,11.770833,62088.323833,42.005062,939.106262,-208.213547,1.75837038760483,2.48143498463792,2.19469250721923,11.684767,814.373474,158.948929,98.059555,1176.547974,-32.603157,"LATERAL"
125,17,14,48.332,5551.5,0.138605,0.67674,-0.084772,0.718071,-0.93553,0.30451,-0.06993,5548.3,0.04566,-0.734577,0.101969,-0.669264,-0.9725,0.05532,0.12006,2.24,2.51,2.59,2.87,2.92,3,2.85,3.88,3.04,3.94,3.97,3.76,3.92,3.85,3.73,2827,11.779167,62088.332167,41.736393,939.2229,-208.182388,1.75948792343836,2.48115846050497,2.19454199156971,11.683111,814.384888,158.929153,98.107063,1176.55542,-32.651772,"LATERAL"
126,17,14,48.359,5551.52,0.138597,0.676647,-0.084918,0.718143,-0.93577,0.30511,-0.06604,5548.32,0.04313,-0.736363,0.100614,-0.667672,-0.97232,0.05849,0.12399,2.24,2.51,2.59,2.87,2.92,3,2.85,3.88,3.04,3.94,3.97,3.76,3.92,3.85,3.73,2834,11.808333,62088.361333,40.610455,939.651001,-208.02359,1.7641758974989,2.48000824574973,2.1938741826763,11.694335,814.427368,158.857056,98.313995,1176.564575,-32.808811,"LATERAL"
127,17,14,48.369,5551.54,0.138571,0.676538,-0.085065,0.718233,-0.93703,0.30723,-0.0689,5548.34,0.040312,-0.738326,0.099116,-0.665903,-0.97048,0.06452,0.12519,2.24,2.51,2.59,2.87,2.92,3,2.85,3.88,3.04,3.94,3.97,3.76,3.92,3.85,3.73,2836,11.816667,62088.369667,40.226555,939.802124,-207.990646,1.76571442179943,2.47954162174605,2.19373694627,11.704446,814.43689,158.839615,98.368401,1176.568604,-32.854446,"LATERAL"
128,17,14,48.398,5551.56,0.138547,0.676434,-0.085242,0.718315,-0.93497,0.30756,-0.06897,5548.36,0.037177,-0.740311,0.097383,-0.664134,-0.98288,0.05947,0.12453,2.24,2.52,2.59,2.87,2.92,3,2.85,3.88,3.04,3.94,3.97,3.76,3.93,3.86,3.72,2843,11.845833,62088.398833,38.866974,940.293396,-207.720032,1.77126313544154,2.47834046981747,2.19271091288094,11.716753,814.48999,158.800049,98.580162,1176.593262,-33.015053,"LATERAL"
129,17,14,48.406,5551.58,0.138498,0.676326,-0.085438,0.718403,-0.93408,0.30701,-0.06988,5548.38,0.033756,-0.742342,0.095454,-0.662328,-0.97335,0.06459,0.12845,2.24,2.52,2.59,2.87,2.92,3,2.85,3.88,3.04,3.94,3.97,3.77,3.93,3.85,3.72,2845,11.854167,62088.407167,38.435856,940.43927,-207.594559,1.77302664859758,2.4780230670943,2.192306304986,11.727603,814.496094,158.787354,98.646378,1176.598877,-33.048553,"LATERAL"
130,17,14,48.438,5551.6,0.138344,0.676248,-0.085649,0.71848,-0.93455,0.30491,-0.07345,5548.4,0.029812,-0.744563,0.093438,-0.660308,-0.97595,0.05905,0.14035,2.24,2.52,2.59,2.87,2.92,3,2.85,3.88,3.03,3.94,3.97,3.76,3.92,3.85,3.72,2853,11.8875,62088.4405,36.532959,941.090454,-207.044144,1.78057137144644,2.47645872275576,2.19071844047127,11.777031,814.546387,158.763779,98.870865,1176.634155,-33.126625,"LATERAL"
131,17,14,48.447,5551.62,0.138257,0.676152,-0.085872,0.718561,-0.93359,0.30617,-0.07171,5548.42,0.025401,-0.746825,0.091316,-0.658232,-0.97614,0.06806,0.15058,2.25,2.52,2.59,2.87,2.92,3,2.85,3.88,3.02,3.93,3.97,3.76,3.92,3.85,3.72,2855,11.895833,62088.448833,35.984631,941.232117,-206.881744,1.78266792644136,2.4760406980012,2.19024041499542,11.796486,814.558472,158.753937,98.921387,1176.642944,-33.121773,"LATERAL"
132,17,14,48.479,5551.64,0.138155,0.676044,-0.086079,0.718657,-0.93351,0.30673,-0.07319,5548.44,0.020469,-0.748928,0.089104,-0.656314,-0.97623,0.08718,0.14675,2.25,2.52,2.59,2.87,2.92,3,2.85,3.88,3.01,3.93,3.97,3.76,3.93,3.85,3.73,2863,11.929167,62088.482167,33.763645,941.966675,-206.287338,1.79089470595809,2.47373930246979,2.18896281391815,11.881813,814.623047,158.777176,99.038399,1176.710815,-33.016537,"LATERAL"
133,17,14,48.488,5551.66,0.138077,0.675985,-0.086291,0.718702,-0.93286,0.3103,-0.07003,5548.46,0.014857,-0.750703,0.08707,-0.654708,-0.9695,0.10022,0.12988,2.25,2.52,2.59,2.87,2.92,3,2.85,3.88,2.99,3.92,3.97,3.76,3.92,3.85,3.72,2865,11.9375,62088.4905,33.202633,942.120178,-206.159943,1.79287662846023,2.47312465451465,2.18869785437985,11.908012,814.631226,158.801056,99.049904,1176.730469,-32.968468,"LATERAL"
134,17,14,48.519,5551.68,0.137954,0.675836,-0.086485,0.718843,-0.93328,0.31091,-0.07263,5548.48,0.008939,-0.75233,0.085817,-0.653112,-0.97102,0.10747,0.13121,2.26,2.52,2.59,2.87,2.92,2.99,2.85,3.88,2.97,3.92,3.97,3.76,3.93,3.85,3.72,2872,11.966667,62088.519667,31.403025,942.768738,-205.89296,1.79918995408939,2.47030379668572,2.1886948325909,12.009541,814.64447,158.891815,99.064537,1176.767334,-32.767399,"LATERAL"
135,17,14,48.524,5551.7,0.137813,0.675713,-0.086665,0.718964,-0.93211,0.30966,-0.07152,5548.5,0.002636,-0.75352,0.085455,-0.651842,-0.98049,0.11344,0.13846,2.26,2.52,2.59,2.87,2.92,2.99,2.86,3.88,2.96,3.92,3.97,3.76,3.92,3.85,3.72,2874,11.975,62088.528,30.880711,942.967346,-205.870728,1.80098330331195,2.46927584122372,2.18891470747577,12.030123,814.642761,158.926941,99.066376,1176.782471,-32.68589,"LATERAL"
136,17,14,48.557,5551.72,0.137667,0.675599,-0.086869,0.719074,-0.93312,0.30976,-0.07077,5548.52,-0.004129,-0.754506,0.085911,-0.650632,-0.98049,0.14005,0.14573,2.26,2.52,2.59,2.87,2.92,2.98,2.86,3.88,2.96,3.91,3.97,3.76,3.92,3.85,3.72,2881,12.004167,62088.557167,29.415218,944.853577,-206.035553,1.80665476482564,2.46284425765311,2.19285660517046,12.098082,814.635681,159.07283,99.062172,1176.841187,-32.360355,"LATERAL"
137,17,14,48.566,5551.74,0.13752,0.675501,-0.087039,0.719174,-0.93394,0.3114,-0.07179,5548.54,-0.011251,-0.755052,0.087049,-0.649763,-0.99885,0.17608,0.15254,2.26,2.52,2.59,2.87,2.93,2.98,2.86,3.88,2.96,3.91,3.97,3.76,3.93,3.85,3.72,2884,12.016667,62088.569667,28.708689,945.49646,-206.203232,1.80913625212866,2.46003679437475,2.19455804616385,12.116059,814.632996,159.134888,99.046997,1176.867188,-32.184338,"LATERAL"
138,17,14,48.599,5551.76,0.137397,0.675436,-0.087201,0.719238,-0.93246,0.31189,-0.07111,5548.56,-0.018475,-0.755215,0.089272,-0.649106,-0.99517,0.19303,0.14655,2.27,2.51,2.59,2.87,2.93,2.98,2.86,3.88,2.96,3.91,3.97,3.76,3.92,3.85,3.72,2892,12.05,62088.603,27.010603,947.536621,-207.074661,1.81524082461537,2.45121770596348,2.20067427424445,12.169818,814.610107,159.293427,99.051109,1177.039795,-31.73526,"LATERAL"
139,17,14,48.609,5551.78,0.137281,0.675361,-0.087218,0.719329,-0.92984,0.31445,-0.07413,5548.58,-0.026045,-0.755284,0.092437,-0.648324,-0.98413,0.19221,0.14678,2.27,2.51,2.58,2.87,2.93,2.98,2.86,3.88,2.96,3.91,3.97,3.76,3.92,3.85,3.72,2894,12.058333,62088.611333,26.591373,948.142822,-207.356934,1.81675262766682,2.44864880600359,2.20257629427786,12.180769,814.602051,159.32016,99.051064,1177.103394,-31.602457,"LATERAL"
140,17,14,48.637,5551.8,0.137256,0.675355,-0.087227,0.719339,-0.92704,0.3103,-0.0746,5548.6,-0.034524,-0.755077,0.095992,-0.647652,-0.99592,0.19761,0.16016,2.27,2.51,2.58,2.87,2.93,2.98,2.86,3.88,2.96,3.91,3.97,3.77,3.92,3.85,3.72,2901,12.0875,62088.6405,25.097208,950.477905,-208.430618,1.82223256681255,2.43879815438464,2.20999247863162,12.172077,814.580322,159.37001,99.067978,1177.341431,-31.066738,"LATERAL"
141,17,14,48.643,5551.82,0.13724,0.675386,-0.087089,0.719329,-0.92972,0.30889,-0.07647,5548.62,-0.043233,-0.754447,0.099909,-0.647271,-0.99273,0.21469,0.16307,2.27,2.51,2.58,2.87,2.93,2.98,2.86,3.88,2.96,3.91,3.97,3.77,3.93,3.85,3.72,2902,12.091667,62088.644667,24.903168,951.097107,-208.750046,1.82302850602207,2.43636092691083,2.21210158296885,12.173898,814.57019,159.377762,99.064865,1177.374878,-30.974989,"LATERAL"
142,17,14,48.678,5551.84,0.137216,0.675441,-0.086935,0.719301,-0.93251,0.30922,-0.07518,5548.64,-0.051963,-0.753628,0.104411,-0.646871,-1.00098,0.23593,0.15426,2.28,2.51,2.58,2.87,2.93,2.98,2.87,3.88,2.96,3.91,3.97,3.77,3.92,3.85,3.72,2910,12.125,62088.678,21.695671,952.116821,-209.784027,1.83292202449732,2.42744776320561,2.21621002636797,12.160478,814.517212,159.414505,99.052185,1177.693848,-30.216141,"LATERAL"
143,17,14,48.687,5551.86,0.137189,0.675543,-0.086783,0.719229,-0.93134,0.30957,-0.0749,5548.66,-0.06051,-0.752549,0.109385,-0.646563,-0.9842,0.24948,0.13766,2.28,2.51,2.58,2.87,2.93,2.98,2.87,3.88,2.96,3.91,3.97,3.77,3.92,3.85,3.72,2913,12.1375,62088.6905,21.428125,953.506042,-210.598938,1.83389757259393,2.42197913499358,2.22133041898338,12.145266,814.492493,159.422424,99.008347,1177.844116,-29.946297,"LATERAL"
144,17,14,48.719,5551.88,0.137059,0.675638,-0.08665,0.71918,-0.9345,0.30509,-0.07279,5548.68,-0.069063,-0.751338,0.114525,-0.646224,-0.98223,0.25356,0.13693,2.28,2.51,2.59,2.87,2.93,2.98,2.87,3.88,2.96,3.91,3.97,3.77,3.92,3.85,3.72,2920,12.166667,62088.719667,19.526226,956.159302,-211.956497,1.84010772095388,2.41036152605438,2.23000599799006,12.089857,814.421204,159.443176,98.883606,1178.170044,-29.274488,"LATERAL"
145,17,14,48.724,5551.9,0.13673,0.675776,-0.086528,0.719128,-0.93645,0.29855,-0.07389,5548.7,-0.078136,-0.749615,0.119645,-0.646265,-0.9707,0.2774,0.12983,2.27,2.51,2.59,2.87,2.93,2.98,2.87,3.88,2.97,3.91,3.97,3.76,3.92,3.85,3.72,2922,12.175,62088.728,19.608513,957.306091,-212.583801,1.84000071549191,2.40619599315574,2.23433636719771,12.064074,814.399475,159.451202,98.851501,1178.252075,-29.076206,"LATERAL"
146,17,14,48.757,5551.92,0.136431,0.675878,-0.08657,0.719083,-0.9356,0.29571,-0.0688,5548.72,-0.087539,-0.747403,0.124846,-0.646637,-0.97224,0.29806,0.12926,2.28,2.51,2.59,2.87,2.93,2.99,2.87,3.88,2.97,3.9,3.97,3.77,3.92,3.85,3.72,2929,12.204167,62088.757167,17.776871,960.12561,-214.027451,1.84575238657098,2.39371235688957,2.24405939564405,11.957983,814.309448,159.493362,98.648964,1178.500977,-28.295778,"LATERAL"
147,17,14,48.762,5551.94,0.13605,0.675974,-0.086684,0.719052,-0.93464,0.30176,-0.07042,5548.74,-0.096911,-0.745077,0.13037,-0.646895,-0.96352,0.31321,0.12995,2.28,2.51,2.59,2.87,2.93,2.99,2.87,3.88,2.97,3.9,3.97,3.77,3.92,3.85,3.72,2931,12.2125,62088.7655,17.427483,961.032227,-214.485031,1.84684790166183,2.38997342412825,2.24729396804214,11.914527,814.287598,159.510376,98.585999,1178.574707,-28.064468,"LATERAL"
148,17,14,48.799,5551.96,0.13563,0.676134,-0.086769,0.718971,-0.93145,0.30408,-0.07352,5548.76,-0.105909,-0.742579,0.136393,-0.647115,-0.954,0.31285,0.12535,2.28,2.51,2.59,2.87,2.93,2.98,2.87,3.88,2.97,3.9,3.97,3.77,3.92,3.86,3.72,2940,12.25,62088.803,16.084469,965.392334,-216.728714,1.85063701322467,2.37241273698134,2.26315525822053,11.7272,814.13208,159.689728,98.189064,1178.969727,-26.969934,"LATERAL"
149,17,14,48.808,5551.98,0.135158,0.676285,-0.086915,0.718899,-0.93263,0.30197,-0.06892,5548.78,-0.114876,-0.740103,0.142385,-0.647131,-0.95286,0.33003,0.12296,2.27,2.52,2.59,2.87,2.93,2.98,2.87,3.88,2.97,3.9,3.97,3.77,3.92,3.85,3.72,2942,12.258333,62088.811333,15.952479,965.907349,-216.924042,1.85082264545312,2.37041008364119,2.26509112825768,11.684593,814.095825,159.739059,98.107216,1179.062744,-26.729355,"LATERAL"
150,17,14,48.838,5552,0.134705,0.676499,-0.087034,0.718769,-0.93431,0.29953,-0.07654,5548.8,-0.124029,-0.73739,0.148333,-0.647202,-0.94648,0.35641,0.12926,2.27,2.52,2.59,2.87,2.93,2.98,2.87,3.88,2.97,3.9,3.98,3.77,3.92,3.85,3.72,2949,12.2875,62088.8405,15.952479,965.907349,-216.924042,1.84918545769053,2.36963147328765,2.26676408260824,11.523836,813.936218,159.91922,97.835518,1179.41272,-25.889919,"LATERAL"
151,17,14,48.847,5552.02,0.13428,0.676751,-0.087199,0.718592,-0.93419,0.3005,-0.07152,5548.82,-0.133275,-0.734634,0.154327,-0.647097,-0.9477,0.4006,0.13879,2.27,2.52,2.59,2.87,2.93,2.98,2.87,3.88,2.97,3.9,3.97,3.77,3.92,3.85,3.72,2951,12.295833,62088.848833,15.952479,965.907349,-216.924042,1.84873478430045,2.3693808710602,2.26726045856336,11.483429,813.887695,159.969589,97.77137,1179.530273,-25.624519,"LATERAL"
152,17,14,48.877,5552.04,0.133774,0.677041,-0.087424,0.718385,-0.93091,0.30514,-0.07638,5548.84,-0.142631,-0.731793,0.160638,-0.646785,-0.93093,0.43272,0.13777,2.27,2.52,2.59,2.87,2.93,2.99,2.87,3.88,2.97,3.9,3.97,3.77,3.92,3.85,3.72,2958,12.325,62088.878,15.952479,965.907349,-216.924042,1.84700193777204,2.36853530061488,2.26904520172573,11.329165,813.759338,160.15007,97.509384,1179.971191,-24.662462,"LATERAL"
153,17,14,48.883,5552.06,0.133289,0.677373,-0.087617,0.718139,-0.93117,0.30643,-0.07104,5548.86,-0.152207,-0.728668,0.167032,-0.646511,-0.91851,0.46141,0.13853,2.27,2.52,2.59,2.87,2.93,2.99,2.87,3.88,2.97,3.9,3.97,3.77,3.92,3.85,3.72,2960,12.333333,62088.886333,15.952479,965.907349,-216.924042,1.84652300201846,2.36831286085962,2.26952594098425,11.284934,813.726624,160.203598,97.439308,1180.102783,-24.392315,"LATERAL"
154,17,14,48.917,5552.08,0.132842,0.677729,-0.087705,0.717875,-0.9303,0.30767,-0.07153,5548.88,-0.161963,-0.725357,0.173253,-0.646226,-0.91575,0.48832,0.12439,2.28,2.52,2.59,2.88,2.93,2.99,2.87,3.88,2.97,3.9,3.98,3.77,3.92,3.85,3.72,2968,12.366667,62088.919667,15.952479,965.907349,-216.924042,1.8443105789071,2.36751253468041,2.2715100786439,11.127174,813.57019,160.452957,97.096031,1180.713989,-23.235937,"LATERAL"
155,17,14,48.923,5552.1,0.132424,0.678118,-0.087742,0.71758,-0.93204,0.3043,-0.06805,5548.9,-0.172164,-0.721717,0.179422,-0.645981,-0.92083,0.48943,0.1138,2.27,2.51,2.59,2.89,2.93,2.99,2.87,3.88,2.97,3.9,3.98,3.77,3.92,3.85,3.72,2969,12.370833,62088.923833,15.952479,965.907349,-216.924042,1.8440631884485,2.36736380571871,2.27179141043162,11.106791,813.551147,160.481476,97.060364,1180.777832,-23.085573,"LATERAL"
156,17,14,48.958,5552.12,0.132104,0.678496,-0.087705,0.717287,-0.93424,0.30195,-0.06534,5548.92,-0.182396,-0.717937,0.185805,-0.645581,-0.89833,0.52023,0.10509,2.27,2.51,2.59,2.89,2.92,2.99,2.87,3.88,2.97,3.9,3.98,3.77,3.92,3.85,3.72,2978,12.408333,62088.961333,15.952479,965.907349,-216.924042,1.84169132583812,2.36624253728716,2.27417325236509,10.900577,813.382507,160.734299,96.726685,1181.484009,-21.686037,"LATERAL"
157,17,14,48.967,5552.14,0.131842,0.678859,-0.087651,0.716998,-0.93464,0.30261,-0.06517,5548.94,-0.192594,-0.71401,0.192379,-0.645048,-0.88597,0.53343,0.09385,2.27,2.5,2.58,2.9,2.91,2.99,2.87,3.88,2.97,3.9,3.97,3.77,3.92,3.85,3.73,2980,12.416667,62088.969667,15.952479,965.907349,-216.924042,1.84107497547323,2.36602449278921,2.27471600019066,10.856059,813.337585,160.78093,96.634384,1181.670532,-21.350285,"LATERAL"
158,17,14,49.001,5552.16,0.131584,0.679225,-0.087613,0.716703,-0.93998,0.30427,-0.0633,5548.96,-0.202906,-0.709808,0.19948,-0.644367,-0.85608,0.54041,0.06621,2.26,2.5,2.58,2.91,2.9,2.99,2.87,3.88,2.98,3.9,3.98,3.77,3.92,3.85,3.73,2988,12.45,62089.003,15.952479,965.907349,-216.924042,1.83883678366397,2.365279914904,2.27663275232288,10.668592,813.188904,160.964432,96.326035,1182.438721,-20.067457,"LATERAL"
159,17,14,49.012,5552.18,0.131375,0.679535,-0.087513,0.71646,-0.93724,0.3049,-0.06271,5548.98,-0.213512,-0.70514,0.20666,-0.643803,-0.89326,0.56062,0.07251,2.26,2.5,2.58,2.91,2.89,2.99,2.87,3.88,2.98,3.9,3.97,3.78,3.91,3.85,3.73,2991,12.4625,62089.0155,15.952479,965.907349,-216.924042,1.83815839867208,2.36499257296771,2.27727419022848,10.582257,813.118408,161.032043,96.260307,1182.736206,-19.593,"LATERAL"
160,17,14,49.037,5552.2,0.131181,0.679892,-0.087345,0.716177,-0.93391,0.30125,-0.06243,5549,-0.223464,-0.700383,0.213952,-0.643235,-0.84956,0.57458,0.05847,2.26,2.5,2.58,2.91,2.89,2.99,2.87,3.88,2.98,3.9,3.98,3.78,3.91,3.85,3.73,2997,12.4875,62089.0405,15.952479,965.907349,-216.924042,1.83669597581249,2.36422463499703,2.27880408687871,10.398002,812.964661,161.139984,96.136993,1183.401245,-18.483372,"LATERAL"
161,17,14,49.043,5552.22,0.130948,0.68023,-0.087214,0.715915,-0.93325,0.29836,-0.05824,5549.02,-0.233162,-0.695482,0.221654,-0.642502,-0.82481,0.57368,0.03496,2.27,2.5,2.58,2.91,2.88,2.99,2.87,3.88,2.98,3.9,3.98,3.78,3.91,3.85,3.73,2998,12.491667,62089.044667,15.952479,965.907349,-216.924042,1.83641190426376,2.36411171605501,2.27906406788938,10.375226,812.937134,161.14946,96.10524,1183.517944,-18.294533,"LATERAL"
162,17,14,49.079,5552.24,0.130723,0.680528,-0.087087,0.715688,-0.93715,0.29548,-0.05854,5549.04,-0.243024,-0.690227,0.229529,-0.64175,-0.8423,0.60301,0.03826,2.27,2.5,2.58,2.91,2.88,2.99,2.87,3.88,2.98,3.9,3.98,3.78,3.91,3.85,3.73,3007,12.529167,62089.082167,15.952479,965.907349,-216.924042,1.83443603070984,2.36329628240656,2.28089827660414,10.238496,812.802368,161.259064,95.98275,1184.599731,-16.719213,"LATERAL"
163,17,14,49.084,5552.26,0.130519,0.6809,-0.086908,0.715393,-0.93959,0.2945,-0.05675,5549.06,-0.252426,-0.684714,0.23725,-0.641217,-0.80387,0.61386,0.03448,2.28,2.5,2.58,2.91,2.88,2.99,2.87,3.88,2.98,3.9,3.98,3.78,3.91,3.85,3.73,3008,12.533333,62089.086333,15.952479,965.907349,-216.924042,1.83419746895279,2.36325858894755,2.28105775873026,10.232509,812.794312,161.266998,95.965111,1184.736816,-16.54911,"LATERAL"
164,17,14,49.116,5552.28,0.130339,0.6812,-0.086795,0.715154,-0.93924,0.29653,-0.05579,5549.08,-0.261897,-0.679058,0.244724,-0.640625,-0.77148,0.63752,0.0373,2.28,2.49,2.58,2.91,2.89,2.99,2.87,3.88,2.98,3.9,3.98,3.78,3.9,3.85,3.73,3016,12.566667,62089.119667,15.952479,965.907349,-216.924042,1.83249580268731,2.36279726139381,2.28238680339841,10.217375,812.780518,161.320343,95.838882,1185.679321,-15.283529,"LATERAL"
165,17,14,49.138,5552.3,0.130085,0.681477,-0.086697,0.714948,-0.93862,0.29562,-0.05654,5549.1,-0.271716,-0.673036,0.25214,-0.640015,-0.72913,0.64554,0.03181,2.28,2.49,2.57,2.91,2.89,2.99,2.87,3.88,2.99,3.9,3.98,3.78,3.9,3.85,3.73,3021,12.5875,62089.1405,15.952479,965.907349,-216.924042,1.83151173285013,2.3624670056064,2.28321698490077,10.233141,812.752136,161.345428,95.78228,1186.261719,-14.488615,"LATERAL"
166,17,14,49.148,5552.32,0.12988,0.681772,-0.08654,0.714723,-0.9341,0.29122,-0.05479,5549.12,-0.281164,-0.667094,0.259188,-0.639339,-0.74187,0.67315,0.0338,2.29,2.49,2.57,2.91,2.89,2.99,2.87,3.88,2.99,3.9,3.98,3.79,3.9,3.85,3.74,3023,12.595833,62089.148833,15.952479,965.907349,-216.924042,1.83120624603875,2.36224623821849,2.28359381007484,10.228341,812.743164,161.356537,95.778816,1186.456665,-14.176935,"LATERAL"
167,17,14,49.18,5552.34,0.12975,0.682028,-0.086312,0.71453,-0.9391,0.29525,-0.05113,5549.14,-0.290199,-0.661069,0.266487,-0.638558,-0.71512,0.68389,0.01932,2.29,2.49,2.57,2.91,2.89,2.99,2.87,3.88,2.99,3.9,3.98,3.79,3.9,3.84,3.73,3031,12.629167,62089.182167,15.952479,965.907349,-216.924042,1.83021285999826,2.36152874905205,2.28481735700008,10.235549,812.670715,161.383636,95.843445,1187.304199,-12.965247,"LATERAL"
168,17,14,49.189,5552.36,0.129678,0.682378,-0.086061,0.714239,-0.94659,0.30069,-0.04471,5549.16,-0.298829,-0.655268,0.27381,-0.637458,-0.7053,0.68178,0.00973,2.29,2.49,2.57,2.91,2.89,2.99,2.87,3.88,2.99,3.9,3.98,3.79,3.9,3.85,3.73,3033,12.6375,62089.1905,15.952479,965.907349,-216.924042,1.8300148802824,2.36134094397189,2.28510621579923,10.236416,812.655029,161.387085,95.871765,1187.506836,-12.672572,"LATERAL"
169,17,14,49.217,5552.38,0.129766,0.682573,-0.085762,0.714073,-0.94826,0.30096,-0.0447,5549.18,-0.307728,-0.64926,0.281717,-0.635925,-0.69725,0.71467,0.02018,2.29,2.49,2.57,2.9,2.89,2.99,2.87,3.88,2.99,3.9,3.98,3.79,3.9,3.85,3.73,3040,12.666667,62089.219667,15.952479,965.907349,-216.924042,1.82930722925148,2.36066913352603,2.28613848292308,10.242944,812.610413,161.417923,95.982529,1188.259766,-11.598123,"LATERAL"
170,17,14,49.225,5552.4,0.129894,0.682858,-0.085485,0.71381,-0.9442,0.29836,-0.04431,5549.2,-0.315537,-0.643671,0.288634,-0.634676,-0.65383,0.72609,-0.00183,2.29,2.49,2.57,2.91,2.89,2.99,2.87,3.88,2.99,3.91,3.98,3.79,3.9,3.85,3.73,3042,12.675,62089.228,15.952479,965.907349,-216.924042,1.82907842134222,2.36045327500385,2.28647062543259,10.244691,812.603516,161.427887,96.004944,1188.467041,-11.284169,"LATERAL"
171,17,14,49.259,5552.42,0.129964,0.683026,-0.085208,0.71367,-0.93654,0.29717,-0.04656,5549.22,-0.32306,-0.638101,0.295528,-0.633343,-0.64305,0.73064,-0.01055,2.29,2.49,2.56,2.9,2.89,2.99,2.87,3.88,2.99,3.9,3.98,3.79,3.9,3.85,3.73,3050,12.708333,62089.261333,15.952479,965.907349,-216.924042,1.82811680060536,2.35968651578216,2.28772344173403,10.257984,812.585266,161.458923,96.054993,1189.249878,-10.106356,"LATERAL"
172,17,14,49.268,5552.44,0.129915,0.683184,-0.085024,0.713549,-0.9337,0.2941,-0.04897,5549.24,-0.330463,-0.632187,0.302352,-0.632231,-0.63053,0.74369,-0.01097,2.29,2.49,2.56,2.9,2.89,2.99,2.87,3.88,2.99,3.9,3.98,3.79,3.9,3.85,3.73,3052,12.716667,62089.269667,15.952479,965.907349,-216.924042,1.82786675529777,2.35952990052366,2.28800570849638,10.269334,812.583801,161.470764,96.059265,1189.439453,-9.831574,"LATERAL"
173,17,14,49.297,5552.46,0.129809,0.68341,-0.084872,0.71337,-0.93565,0.29353,-0.05219,5549.26,-0.337391,-0.626346,0.309059,-0.631143,-0.60528,0.75793,-0.01004,2.29,2.49,2.56,2.9,2.89,2.99,2.87,3.88,2.99,3.9,3.98,3.79,3.9,3.85,3.73,3059,12.745833,62089.298833,15.952479,965.907349,-216.924042,1.82700840954487,2.35883642906662,2.28913092550969,10.302538,812.592468,161.515121,96.054588,1190.00415,-8.897327,"LATERAL"
174,17,14,49.302,5552.48,0.129708,0.683553,-0.084787,0.713262,-0.93996,0.2948,-0.05134,5549.28,-0.344521,-0.61977,0.317102,-0.629791,-0.59406,0.78777,-0.00722,2.29,2.5,2.56,2.9,2.89,2.99,2.87,3.88,2.99,3.91,3.98,3.79,3.9,3.85,3.73,3060,12.75,62089.303,15.952479,965.907349,-216.924042,1.8268899592698,2.35879179313485,2.28923455306393,10.314065,812.592102,161.515488,96.051147,1190.085938,-8.787493,"LATERAL"
175,17,14,49.337,5552.5,0.129596,0.683747,-0.08474,0.713102,-0.94036,0.29679,-0.05019,5549.3,-0.350286,-0.612536,0.324241,-0.630053,-0.56013,0.78156,-0.02849,2.29,2.5,2.56,2.9,2.89,2.99,2.87,3.88,3,3.9,3.98,3.79,3.9,3.85,3.73,3069,12.7875,62089.3405,15.952479,965.907349,-216.924042,1.82602443355922,2.35836053697537,2.29009695523188,10.37566,812.616882,161.543777,96.098045,1190.864624,-7.76884,"LATERAL"
176,17,14,49.342,5552.52,0.129481,0.683881,-0.084659,0.713004,-0.94081,0.29626,-0.05029,5549.32,-0.35602,-0.604915,0.331323,-0.630518,-0.54689,0.78892,-0.04402,2.29,2.5,2.56,2.9,2.89,3,2.87,3.88,3,3.91,3.98,3.79,3.9,3.85,3.73,3070,12.791667,62089.344667,15.952479,965.907349,-216.924042,1.82597060668951,2.35827624918955,2.29020850989175,10.381101,812.615051,161.547684,96.111153,1190.928955,-7.664819,"LATERAL"
177,17,14,49.38,5552.54,0.129429,0.683981,-0.084554,0.712929,-0.94151,0.29342,-0.04905,5549.34,-0.361939,-0.59744,0.337844,-0.630815,-0.52604,0.8083,-0.0511,2.29,2.5,2.56,2.9,2.89,2.99,2.87,3.88,3,3.91,3.99,3.79,3.9,3.85,3.74,3079,12.829167,62089.382167,15.952479,965.907349,-216.924042,1.82521512303765,2.35746061348893,2.29140288176323,10.428951,812.61261,161.537567,96.13665,1191.470947,-6.704132,"LATERAL"
178,17,14,49.385,5552.56,0.12936,0.684219,-0.084468,0.712725,-0.94006,0.29651,-0.0486,5549.36,-0.36779,-0.589922,0.344314,-0.631007,-0.50425,0.83423,-0.04881,2.29,2.5,2.56,2.9,2.89,3,2.87,3.88,3.01,3.91,3.99,3.79,3.91,3.85,3.73,3080,12.833333,62089.386333,15.952479,965.907349,-216.924042,1.82512308637398,2.3574122251013,2.29149688641767,10.435041,812.618347,161.532578,96.134178,1191.532959,-6.613678,"LATERAL"
179,17,14,49.419,5552.58,0.129356,0.684267,-0.084345,0.712693,-0.93856,0.29674,-0.04717,5549.38,-0.373373,-0.582497,0.3504,-0.631277,-0.49189,0.85636,-0.056,2.29,2.5,2.56,2.9,2.89,3,2.87,3.88,3.01,3.91,3.99,3.79,3.91,3.85,3.73,3088,12.866667,62089.419667,15.952479,965.907349,-216.924042,1.82436809855402,2.35688339624483,2.29240034460641,10.457965,812.642334,161.493332,96.10704,1191.994263,-5.855621,"LATERAL"
180,17,14,49.424,5552.6,0.129325,0.684478,-0.084225,0.71251,-0.94264,0.29539,-0.04646,5549.4,-0.379681,-0.576444,0.355095,-0.630447,-0.44053,0.8689,-0.07087,2.29,2.5,2.56,2.9,2.89,3,2.87,3.88,3.01,3.91,3.99,3.79,3.9,3.85,3.73,3090,12.875,62089.428,15.952479,965.907349,-216.924042,1.82425796031695,2.35673905070604,2.29259978771063,10.460769,812.650574,161.47821,96.116066,1192.083252,-5.694237,"LATERAL"
181,17,14,49.458,5552.62,0.129309,0.684485,-0.08419,0.71251,-0.94085,0.29422,-0.04572,5549.42,-0.385987,-0.570436,0.359845,-0.629388,-0.46915,0.8577,-0.08388,2.29,2.5,2.56,2.9,2.89,3,2.87,3.88,3.02,3.91,3.98,3.79,3.9,3.85,3.73,3098,12.908333,62089.461333,15.952479,965.907349,-216.924042,1.82377796683476,2.35599586362003,2.29358363014578,10.490264,812.68103,161.438614,96.135887,1192.390869,-5.013268,"LATERAL"
182,17,14,49.471,5552.64,0.129222,0.684506,-0.084217,0.712503,-0.93713,0.2911,-0.04825,5549.44,-0.392649,-0.56388,0.365619,-0.627844,-0.40676,0.86825,-0.10017,2.29,2.5,2.56,2.9,2.9,3,2.87,3.88,3.02,3.91,3.99,3.79,3.91,3.85,3.73,3101,12.920833,62089.473833,15.952479,965.907349,-216.924042,1.82353316637199,2.35575204435127,2.29394888284358,10.501582,812.694153,161.431122,96.117119,1192.497192,-4.774251,"LATERAL"
183,17,14,49.5,5552.66,0.129066,0.684578,-0.084128,0.712473,-0.9386,0.29124,-0.04909,5549.46,-0.397898,-0.557727,0.371243,-0.626735,-0.48373,0.8892,-0.09323,2.29,2.5,2.56,2.89,2.9,3,2.87,3.88,3.02,3.92,3.99,3.79,3.91,3.85,3.73,3108,12.95,62089.503,15.952479,965.907349,-216.924042,1.82291841252393,2.35533528677101,2.29466849164191,10.536595,812.753723,161.38768,96.051125,1192.756226,-4.2699,"LATERAL"
184,17,14,49.514,5552.68,0.129027,0.684546,-0.084152,0.712508,-0.94224,0.29293,-0.04642,5549.48,-0.403075,-0.551609,0.377153,-0.625311,-0.38504,0.89451,-0.09957,2.29,2.5,2.56,2.89,2.9,3,2.87,3.88,3.02,3.91,3.99,3.79,3.91,3.85,3.73,3111,12.9625,62089.5155,15.952479,965.907349,-216.924042,1.82267454491509,2.35519677962116,2.29492671443386,10.552095,812.776611,161.38356,96.019691,1192.850586,-4.089772,"LATERAL"
185,17,14,49.538,5552.7,0.128876,0.684514,-0.084235,0.712556,-0.94153,0.2918,-0.0505,5549.5,-0.40839,-0.545228,0.382931,-0.623946,-0.40145,0.91239,-0.10509,2.29,2.5,2.56,2.89,2.9,3,2.88,3.88,3.03,3.91,3.98,3.79,3.91,3.85,3.73,3117,12.9875,62089.5405,15.952479,965.907349,-216.924042,1.82233770474903,2.35490036231218,2.2953890713694,10.605478,812.789734,161.382462,95.997459,1193.017456,-3.758628,"LATERAL"
186,17,14,49.549,5552.72,0.128772,0.684404,-0.084367,0.712665,-0.93949,0.29292,-0.04975,5549.52,-0.413821,-0.538535,0.388693,-0.622616,-0.38447,0.91837,-0.11501,2.29,2.5,2.56,2.89,2.9,3,2.87,3.89,3.03,3.92,3.99,3.79,3.91,3.85,3.73,3120,13,62089.553,15.952479,965.907349,-216.924042,1.82209298093836,2.35473596108626,2.29567349868908,10.627859,812.795288,161.379684,95.964035,1193.101563,-3.576009,"LATERAL"
187,17,14,49.576,5552.74,0.128654,0.684322,-0.084474,0.712753,-0.94033,0.2949,-0.04841,5549.54,-0.419278,-0.531642,0.394383,-0.621309,-0.35287,0.92965,-0.10964,2.3,2.5,2.56,2.89,2.9,3,2.87,3.88,3.03,3.91,3.99,3.79,3.91,3.85,3.73,3126,13.025,62089.578,15.952479,965.907349,-216.924042,1.821776455762,2.35444252981619,2.29612257215611,10.681091,812.823975,161.376541,95.986748,1193.379639,-3.143678,"LATERAL"
188,17,14,49.598,5552.76,0.128549,0.684241,-0.084645,0.712829,-0.93958,0.29464,-0.04942,5549.56,-0.424701,-0.524948,0.400188,-0.619602,-0.32035,0.95025,-0.13065,2.3,2.5,2.56,2.89,2.9,3,2.87,3.88,3.03,3.91,3.99,3.79,3.91,3.85,3.73,3131,13.045833,62089.598833,15.952479,965.907349,-216.924042,1.82146908703438,2.35420672612876,2.29650894762827,10.710289,812.887756,161.334763,96.006218,1193.654175,-2.741711,"LATERAL"
189,17,14,49.603,5552.78,0.128427,0.684116,-0.084776,0.712955,-0.94148,0.29361,-0.04801,5549.58,-0.430207,-0.518868,0.407046,-0.616451,-0.31166,0.94186,-0.12561,2.3,2.5,2.56,2.89,2.9,3,2.87,3.89,3.03,3.91,3.99,3.79,3.91,3.85,3.73,3132,13.05,62089.603,15.952479,965.907349,-216.924042,1.82137899855513,2.35416869000619,2.29659085546241,10.716558,812.903564,161.323303,96.002556,1193.71521,-2.656351,"LATERAL"
190,17,14,49.639,5552.8,0.128394,0.684042,-0.084871,0.713021,-0.93945,0.29429,-0.04888,5549.6,-0.434314,-0.513676,0.413785,-0.613425,-0.32136,0.90426,-0.12646,2.3,2.5,2.56,2.89,2.9,3,2.87,3.88,3.03,3.91,3.99,3.79,3.91,3.85,3.73,3141,13.0875,62089.6405,15.952479,965.907349,-216.924042,1.82109254174337,2.35392224894923,2.29697757656574,10.774278,813.047913,161.150894,96.166245,1194.380249,-1.883988,"LATERAL"
191,17,14,49.644,5552.82,0.128346,0.6839,-0.08493,0.713158,-0.93668,0.29609,-0.05005,5549.62,-0.438673,-0.508763,0.419649,-0.610427,-0.24309,0.88342,-0.09766,2.3,2.5,2.56,2.89,2.9,3,2.87,3.89,3.03,3.92,3.98,3.79,3.9,3.85,3.73,3142,13.091667,62089.644667,15.952479,965.907349,-216.924042,1.82104174572994,2.35391337881128,2.29701105806761,10.779133,813.056763,161.126633,96.176346,1194.452393,-1.806059,"LATERAL"
192,17,14,49.678,5552.84,0.128296,0.68378,-0.085013,0.713273,-0.93459,0.29649,-0.05015,5549.64,-0.44277,-0.50389,0.424743,-0.607983,-0.23933,0.90969,-0.08742,2.3,2.5,2.56,2.89,2.9,3,2.88,3.89,3.03,3.92,3.98,3.79,3.9,3.85,3.73,3150,13.125,62089.678,15.952479,965.907349,-216.924042,1.82064805546314,2.35379999629801,2.29731533624275,10.811563,813.167419,160.899338,96.26754,1195.039063,-1.155398,"LATERAL"
193,17,14,49.683,5552.86,0.12824,0.683746,-0.085133,0.713301,-0.94118,0.29407,-0.04899,5549.66,-0.44694,-0.499184,0.429293,-0.605614,-0.26385,0.94005,-0.12031,2.3,2.5,2.56,2.89,2.9,3,2.88,3.88,3.03,3.91,3.99,3.79,3.9,3.85,3.72,3152,13.133333,62089.686333,15.952479,965.907349,-216.924042,1.82051820116494,2.35376954084385,2.29740864338936,10.825438,813.189819,160.841736,96.281944,1195.189819,-0.984157,"LATERAL"
194,17,14,49.719,5552.88,0.128139,0.683618,-0.085275,0.713425,-0.94432,0.2911,-0.04994,5549.68,-0.451154,-0.494397,0.433625,-0.603325,-0.20966,0.93529,-0.12812,2.3,2.5,2.56,2.89,2.9,3,2.87,3.89,3.03,3.92,3.98,3.79,3.89,3.85,3.72,3160,13.166667,62089.719667,15.952479,965.907349,-216.924042,1.82039948513138,2.35355004352689,2.29768689491703,10.893381,813.252075,160.664536,96.439667,1195.696289,-0.391654,"LATERAL"
195,17,14,49.724,5552.9,0.127857,0.683516,-0.085554,0.71354,-0.94821,0.28835,-0.0464,5549.7,-0.455166,-0.489344,0.437559,-0.601588,-0.18213,0.93002,-0.13082,2.3,2.5,2.56,2.89,2.9,3,2.87,3.89,3.03,3.91,3.98,3.79,3.89,3.85,3.72,3162,13.175,62089.728,15.952479,965.907349,-216.924042,1.82034953016087,2.35345865695262,2.29780298517105,10.905091,813.264893,160.63623,96.473015,1195.81543,-0.231199,"LATERAL"
196,17,14,49.759,5552.92,0.127607,0.68335,-0.085846,0.713709,-0.94303,0.28793,-0.05089,5549.72,-0.459437,-0.48423,0.440658,-0.600217,-0.21577,0.92742,-0.13112,2.3,2.5,2.56,2.89,2.9,3,2.88,3.89,3.03,3.92,3.99,3.79,3.89,3.85,3.71,3170,13.208333,62089.761333,15.952479,965.907349,-216.924042,1.82019960508437,2.3533338990238,2.29800082472637,10.996476,813.318054,160.557022,96.623726,1196.352417,0.350481,"LATERAL"
197,17,14,49.764,5552.94,0.127329,0.683207,-0.086168,0.713856,-0.94123,0.28803,-0.04644,5549.74,-0.463601,-0.479353,0.443559,-0.598791,-0.12578,0.92008,-0.12857,2.3,2.5,2.56,2.89,2.9,3,2.87,3.88,3.03,3.91,3.99,3.8,3.89,3.85,3.71,3171,13.2125,62089.7655,15.952479,965.907349,-216.924042,1.82017316728312,2.35330062541874,2.29804705695498,11.00315,813.328857,160.553589,96.640656,1196.416992,0.42993,"LATERAL"
198,17,14,49.799,5552.96,0.127013,0.683063,-0.086525,0.714007,-0.93703,0.28906,-0.04871,5549.76,-0.466869,-0.474989,0.446736,-0.597366,-0.17852,0.93366,-0.14758,2.3,2.5,2.57,2.89,2.9,3,2.87,3.89,3.03,3.91,3.99,3.8,3.9,3.86,3.71,3180,13.25,62089.803,15.952479,965.907349,-216.924042,1.81975953112495,2.3527203490267,2.29883024574061,11.087699,813.401611,160.510361,96.744003,1196.952759,1.254146,"LATERAL"
199,17,14,49.804,5552.98,0.12676,0.682934,-0.086833,0.714138,-0.93724,0.29192,-0.04846,5549.78,-0.470055,-0.47111,0.44999,-0.595493,-0.14825,0.93577,-0.15111,2.3,2.5,2.57,2.89,2.91,3,2.88,3.89,3.02,3.92,3.99,3.8,3.9,3.86,3.71,3181,13.254167,62089.807167,15.952479,965.907349,-216.924042,1.81975496118313,2.35264608944953,2.29890719126414,11.09025,813.404419,160.50882,96.767418,1197.006592,1.34014,"LATERAL"
200,17,14,49.838,5553,0.126671,0.682781,-0.087163,0.71426,-0.93619,0.29865,-0.05205,5549.8,-0.472783,-0.467499,0.45295,-0.593933,-0.17913,0.95304,-0.1468,2.3,2.5,2.57,2.89,2.91,3,2.87,3.89,3.03,3.91,3.99,3.8,3.9,3.86,3.7,3189,13.2875,62089.8405,15.952479,965.907349,-216.924042,1.81959910336663,2.35220429518045,2.29942676461455,11.109275,813.422729,160.503052,96.928482,1197.506104,2.036804,"LATERAL"
201,17,14,49.844,5553.02,0.126577,0.682677,-0.087348,0.714354,-0.93502,0.30191,-0.0568,5549.82,-0.475561,-0.463738,0.455466,-0.592739,-0.056,0.93405,-0.13156,2.3,2.5,2.57,2.89,2.91,3,2.87,3.88,3.03,3.91,3.99,3.8,3.9,3.86,3.7,3190,13.291667,62089.844667,15.952479,965.907349,-216.924042,1.81955706245618,2.35210043947369,2.29955148366999,11.104612,813.429138,160.504471,96.947502,1197.574585,2.155091,"LATERAL"
202,17,14,49.878,5553.04,0.126586,0.682565,-0.087429,0.714449,-0.93741,0.30198,-0.0515,5549.84,-0.478524,-0.460537,0.457651,-0.591165,-0.10999,0.94329,-0.13693,2.3,2.5,2.57,2.89,2.92,3,2.88,3.89,3.02,3.92,3.99,3.81,3.91,3.86,3.7,3198,13.325,62089.878,15.952479,965.907349,-216.924042,1.81945842172776,2.35140431928416,2.30029937499599,11.136695,813.474548,160.513824,97.130806,1198.026001,2.92017,"LATERAL"
203,17,14,49.883,5553.06,0.126499,0.682427,-0.087611,0.714573,-0.93811,0.29989,-0.05464,5549.86,-0.481304,-0.457686,0.459838,-0.589422,-0.10038,0.93182,-0.14711,2.31,2.5,2.58,2.88,2.92,3,2.88,3.89,3.02,3.92,3.99,3.81,3.91,3.86,3.7,3200,13.333333,62089.886333,15.952479,965.907349,-216.924042,1.81943815003138,2.3512137250579,2.30050088419381,11.155371,813.490601,160.518829,97.170349,1198.112915,3.094396,"LATERAL"
204,17,14,49.919,5553.08,0.126344,0.682281,-0.087788,0.714719,-0.93984,0.29555,-0.05427,5549.88,-0.483871,-0.455203,0.461979,-0.587567,-0.08915,0.9318,-0.15519,2.31,2.5,2.58,2.88,2.92,3,2.88,3.89,3.03,3.92,4,3.82,3.92,3.86,3.69,3208,13.366667,62089.919667,15.952479,965.907349,-216.924042,1.81962746793351,2.35073393622187,2.30089271435961,11.222107,813.529602,160.496567,97.389763,1198.453979,3.620974,"LATERAL"
205,17,14,49.924,5553.1,0.126108,0.682087,-0.088058,0.714912,-0.93626,0.29391,-0.05776,5549.9,-0.486274,-0.452728,0.464212,-0.585732,-0.05484,0.9401,-0.1537,2.31,2.5,2.58,2.88,2.93,3,2.88,3.89,3.02,3.91,4,3.82,3.92,3.86,3.69,3210,13.375,62089.928,15.952479,965.907349,-216.924042,1.81974030185437,2.35067562136003,2.30089717795945,11.231203,813.538818,160.498795,97.457375,1198.530029,3.707207,"LATERAL"
206,17,14,49.957,5553.12,0.125912,0.682028,-0.088243,0.714981,-0.93393,0.29246,-0.06049,5549.92,-0.489532,-0.450725,0.465707,-0.583372,-0.05568,0.93206,-0.14994,2.31,2.5,2.58,2.88,2.93,3,2.88,3.89,3.02,3.92,4,3.83,3.92,3.85,3.69,3217,13.404167,62089.957167,15.952479,965.907349,-216.924042,1.82034898199196,2.35040226527206,2.30087939447221,11.287344,813.552917,160.526703,97.740799,1198.717041,3.941245,"LATERAL"
207,17,14,49.962,5553.14,0.125779,0.681971,-0.088347,0.715046,-0.93931,0.29583,-0.05432,5549.94,-0.492372,-0.448925,0.467462,-0.580961,-0.07908,0.96209,-0.16026,2.31,2.5,2.58,2.88,2.93,3,2.88,3.88,3.02,3.92,4.01,3.84,3.92,3.86,3.69,3219,13.4125,62089.9655,15.952479,965.907349,-216.924042,1.82056112186239,2.35031472033932,2.30086526888912,11.296365,813.548523,160.538437,97.831406,1198.760498,3.998553,"LATERAL"
208,17,14,49.999,5553.16,0.125545,0.681967,-0.088493,0.715072,-0.94088,0.29787,-0.04818,5549.96,-0.495179,-0.447425,0.469164,-0.578354,-0.02487,0.93823,-0.15533,2.32,2.5,2.58,2.88,2.93,3,2.88,3.89,3.02,3.92,4.02,3.85,3.92,3.86,3.69,3228,13.45,62090.003,15.952479,965.907349,-216.924042,1.8211766025642,2.3500589113117,2.30082566151788,11.311569,813.562195,160.567139,98.12117,1198.961792,4.237,"LATERAL"
209,17,14,50.004,5553.18,0.125242,0.681875,-0.088644,0.715194,-0.94055,0.29632,-0.04885,5549.98,-0.497824,-0.445758,0.470594,-0.576205,-0.04769,0.95724,-0.16146,2.32,2.5,2.58,2.88,2.93,3,2.88,3.88,3.02,3.91,4.03,3.86,3.93,3.85,3.69,3229,13.454167,62090.007167,15.952479,965.907349,-216.924042,1.821283746201,2.35000412317702,2.30082901707926,11.313293,813.564148,160.567215,98.169411,1198.988037,4.275004,"LATERAL"
210,17,14,50.037,5553.2,0.124913,0.681769,-0.088842,0.715329,-0.93863,0.2929,-0.04987,5550,-0.50031,-0.444092,0.471681,-0.574447,-0.04707,0.95895,-0.16384,2.32,2.5,2.58,2.88,2.93,3,2.87,3.88,3.02,3.92,4.03,3.86,3.93,3.85,3.69,3237,13.4875,62090.0405,15.952479,965.907349,-216.924042,1.82186680423152,2.34966963735674,2.30088347937412,11.293606,813.585999,160.552872,98.474083,1199.240845,4.603433,"LATERAL"
211,17,14,50.042,5553.22,0.124601,0.681645,-0.08907,0.715473,-0.93354,0.29483,-0.05486,5550.02,-0.502359,-0.442936,0.472753,-0.572668,-0.04274,0.94542,-0.16319,2.32,2.5,2.58,2.88,2.94,3,2.87,3.88,3.01,3.91,4.03,3.87,3.93,3.85,3.69,3238,13.491667,62090.044667,15.952479,965.907349,-216.924042,1.82193802247296,2.34963562027379,2.30088320987761,11.285454,813.593933,160.552139,98.512711,1199.277222,4.645539,"LATERAL"
212,17,14,50.078,5553.24,0.124413,0.681536,-0.089208,0.715592,-0.93597,0.29668,-0.05627,5550.04,-0.504031,-0.442132,0.473517,-0.571187,-0.02398,0.93942,-0.14854,2.32,2.5,2.58,2.88,2.94,3,2.87,3.88,3.01,3.91,4.04,3.88,3.93,3.84,3.68,3246,13.525,62090.078,15.952479,965.907349,-216.924042,1.82228237579728,2.34932164332827,2.30103218132268,11.233421,813.62793,160.467194,98.74279,1199.539551,5.00213,"LATERAL"
213,17,14,50.083,5553.26,0.124268,0.68138,-0.089263,0.715759,-0.93602,0.29368,-0.05995,5550.06,-0.505548,-0.441244,0.473943,-0.570179,-0.0128,0.92322,-0.14633,2.32,2.5,2.58,2.88,2.94,3,2.88,3.88,3.01,3.91,4.04,3.89,3.93,3.84,3.68,3248,13.533333,62090.086333,15.952479,965.907349,-216.924042,1.8223521237973,2.34923178101805,2.30108875360843,11.229274,813.627563,160.442902,98.791245,1199.591553,5.085779,"LATERAL"
214,17,14,50.118,5553.28,0.124142,0.681274,-0.089379,0.715867,-0.94175,0.29201,-0.0542,5550.08,-0.506545,-0.440701,0.474446,-0.569294,-0.02267,0.92486,-0.15839,2.32,2.5,2.58,2.88,2.94,3,2.88,3.88,3.01,3.91,4.05,3.89,3.94,3.84,3.68,3256,13.566667,62090.119667,15.952479,965.907349,-216.924042,1.82259435518231,2.34890490023981,2.30130003393951,11.216249,813.626343,160.36055,98.981178,1199.829224,5.437725,"LATERAL"
215,17,14,50.123,5553.3,0.123931,0.681243,-0.08949,0.715919,-0.94027,0.2907,-0.05769,5550.1,-0.506716,-0.440527,0.474897,-0.568901,-0.02584,0.92575,-0.16021,2.32,2.5,2.58,2.88,2.94,3,2.88,3.88,3.01,3.91,4.05,3.9,3.94,3.83,3.68,3257,13.570833,62090.123833,15.952479,965.907349,-216.924042,1.8226213660942,2.34885441803589,2.30133770185686,11.216536,813.625061,160.350525,99.004723,1199.859009,5.486782,"LATERAL"
216,17,14,50.158,5553.32,0.123762,0.681106,-0.089658,0.716058,-0.94083,0.28955,-0.05544,5550.12,-0.506614,-0.440433,0.475156,-0.568847,-0.01099,0.92024,-0.16014,2.32,2.5,2.58,2.88,2.94,3,2.88,3.88,3.01,3.91,4.06,3.91,3.95,3.83,3.69,3266,13.608333,62090.161333,15.952479,965.907349,-216.924042,1.82260995613437,2.34863663911188,2.30156230816543,11.246665,813.623596,160.34079,99.108078,1200.108765,5.829265,"LATERAL"
217,17,14,50.163,5553.34,0.123517,0.68097,-0.089875,0.716203,-0.94334,0.28791,-0.0542,5550.14,-0.506283,-0.440454,0.475045,-0.569219,-0.01491,0.90048,-0.16244,2.32,2.5,2.58,2.88,2.94,3,2.88,3.88,3.01,3.9,4.06,3.93,3.95,3.82,3.69,3267,13.6125,62090.1655,15.952479,965.907349,-216.924042,1.82259934623058,2.34862415862578,2.30158001307126,11.246146,813.626587,160.344803,99.11203,1200.126587,5.853439,"LATERAL"
218,17,14,50.197,5553.36,0.123207,0.680945,-0.08996,0.716269,-0.94169,0.28711,-0.05441,5550.16,-0.505342,-0.440876,0.474995,-0.56977,-0.01175,0.90674,-0.15273,2.32,2.5,2.58,2.88,2.94,3,2.88,3.88,3.01,3.9,4.07,3.94,3.95,3.82,3.69,3275,13.645833,62090.198833,15.952479,965.907349,-216.924042,1.82264077270549,2.34838165293947,2.30180382504673,11.258983,813.607849,160.418442,99.160431,1200.16748,6.002858,"LATERAL"
219,17,14,50.203,5553.38,0.122966,0.680884,-0.09008,0.716353,-0.93569,0.28993,-0.05244,5550.18,-0.504158,-0.441698,0.474927,-0.570239,-0.01944,0.92102,-0.14507,2.32,2.5,2.58,2.88,2.94,3,2.88,3.89,3.02,3.9,4.07,3.95,3.96,3.82,3.68,3276,13.65,62090.203,15.952479,965.907349,-216.924042,1.82265474479423,2.34833642901373,2.30184252809175,11.264842,813.597778,160.429718,99.166344,1200.160645,6.016216,"LATERAL"
220,17,14,50.238,5553.4,0.122749,0.680882,-0.090251,0.716371,-0.93525,0.29546,-0.05221,5550.2,-0.502777,-0.442881,0.474668,-0.570756,-0.01728,0.93199,-0.15121,2.32,2.5,2.58,2.88,2.94,3,2.88,3.88,3.02,3.9,4.08,3.96,3.96,3.81,3.69,3285,13.6875,62090.2405,15.952479,965.907349,-216.924042,1.82295019968749,2.34802232052182,2.3020149227449,11.278275,813.546936,160.531372,99.256432,1200.070557,6.044472,"LATERAL"
221,17,14,50.243,5553.42,0.122501,0.680836,-0.090403,0.716438,-0.93881,0.2983,-0.05354,5550.22,-0.501176,-0.444315,0.474181,-0.571453,-0.02119,0.94275,-0.15423,2.32,2.5,2.58,2.88,2.94,3,2.88,3.88,3.03,3.9,4.08,3.96,3.96,3.81,3.68,3286,13.691667,62090.244667,15.952479,965.907349,-216.924042,1.82294723534437,2.3479933241284,2.30204552701503,11.273044,813.540283,160.543793,99.252457,1200.055176,6.044004,"LATERAL"
222,17,14,50.277,5553.44,0.122275,0.6808,-0.09052,0.716496,-0.93952,0.30061,-0.05568,5550.24,-0.499583,-0.445915,0.473382,-0.572265,-0.02836,0.94097,-0.14988,2.32,2.5,2.58,2.88,2.94,3,2.88,3.89,3.03,3.9,4.08,3.97,3.97,3.8,3.68,3294,13.725,62090.278,15.952479,965.907349,-216.924042,1.82335634511792,2.3477251072904,2.30211629378833,11.287156,813.496582,160.614334,99.339088,1199.863281,5.939616,"LATERAL"
223,17,14,50.282,5553.46,0.122239,0.680877,-0.090624,0.716416,-0.93623,0.29914,-0.06049,5550.26,-0.498017,-0.447362,0.472252,-0.573432,-0.03495,0.95351,-0.1491,2.32,2.5,2.58,2.88,2.94,3,2.88,3.88,3.04,3.9,4.09,3.98,3.97,3.8,3.69,3295,13.729167,62090.282167,15.952479,965.907349,-216.924042,1.8233928090368,2.34771041682747,2.30211331824315,11.291122,813.491882,160.613724,99.342369,1199.835938,5.91616,"LATERAL"
224,17,14,50.318,5553.48,0.122126,0.68095,-0.090649,0.716363,-0.93488,0.29539,-0.05591,5550.28,-0.496122,-0.448993,0.471231,-0.574639,-0.0494,0.95571,-0.15358,2.32,2.5,2.58,2.88,2.94,3,2.88,3.88,3.05,3.9,4.09,3.99,3.98,3.79,3.68,3304,13.766667,62090.319667,15.952479,965.907349,-216.924042,1.82373747314734,2.34738320642383,2.30227450565079,11.297041,813.447632,160.657394,99.423637,1199.673828,5.875896,"LATERAL"
225,17,14,50.323,5553.5,0.122124,0.681124,-0.090599,0.716204,-0.93651,0.29339,-0.05859,5550.3,-0.493709,-0.451027,0.470172,-0.575989,-0.0505,0.965,-0.15222,2.32,2.5,2.58,2.89,2.94,3,2.88,3.88,3.05,3.9,4.09,4,3.99,3.78,3.68,3305,13.770833,62090.323833,15.952479,965.907349,-216.924042,1.8237928530915,2.34737170163057,2.30225908035919,11.294544,813.447754,160.65976,99.439316,1199.664917,5.866183,"LATERAL"
226,17,14,50.359,5553.52,0.122191,0.681188,-0.090513,0.716142,-0.93762,0.29278,-0.05551,5550.32,-0.491363,-0.453193,0.468683,-0.577507,-0.05228,0.96807,-0.15048,2.32,2.5,2.58,2.89,2.94,3,2.88,3.89,3.05,3.9,4.09,4.01,3.99,3.78,3.68,3314,13.808333,62090.361333,15.952479,965.907349,-216.924042,1.82409039606328,2.34737880667279,2.30210679934728,11.288027,813.441528,160.658356,99.493675,1199.549927,5.717195,"LATERAL"
227,17,14,50.364,5553.54,0.122194,0.681221,-0.090482,0.716115,-0.93884,0.29253,-0.05399,5550.34,-0.489305,-0.455025,0.46684,-0.579304,-0.05812,0.95778,-0.1491,2.32,2.5,2.58,2.89,2.94,3,2.88,3.89,3.06,3.9,4.09,4.02,4,3.78,3.68,3315,13.8125,62090.3655,15.952479,965.907349,-216.924042,1.82412868603822,2.34738011321598,2.30208679659024,11.284017,813.437805,160.655792,99.499504,1199.531982,5.694836,"LATERAL"
228,17,14,50.397,5553.56,0.121963,0.681402,-0.09047,0.715983,-0.93952,0.28938,-0.05305,5550.36,-0.486978,-0.456988,0.46504,-0.581165,-0.08981,0.95759,-0.15212,2.32,2.5,2.58,2.89,2.94,3,2.88,3.88,3.06,3.9,4.09,4.03,4,3.78,3.68,3323,13.845833,62090.398833,15.952479,965.907349,-216.924042,1.82429017465787,2.34738838417831,2.30199962883249,11.253905,813.399719,160.665283,99.504349,1199.401855,5.54735,"LATERAL"
229,17,14,50.402,5553.58,0.121893,0.68142,-0.090525,0.715971,-0.93926,0.28903,-0.05144,5550.38,-0.48419,-0.459326,0.463631,-0.582774,-0.0892,0.95837,-0.14694,2.32,2.5,2.58,2.89,2.94,3,2.88,3.88,3.07,3.89,4.1,4.03,4.01,3.77,3.68,3324,13.85,62090.403,15.952479,965.907349,-216.924042,1.82432241511176,2.34742117466503,2.30195090207232,11.249704,813.396484,160.666901,99.508682,1199.3927,5.51912,"LATERAL"
230,17,14,50.439,5553.6,0.121713,0.681583,-0.090566,0.715842,-0.94001,0.29081,-0.05258,5550.4,-0.481428,-0.46192,0.462055,-0.584263,-0.07922,0.95107,-0.14008,2.32,2.5,2.58,2.89,2.94,3,2.88,3.88,3.07,3.89,4.1,4.04,4.01,3.77,3.68,3333,13.8875,62090.4405,15.952479,965.907349,-216.924042,1.82486958788969,2.34768018238549,2.30142282813163,11.204684,813.353882,160.677597,99.590805,1199.191162,5.137714,"LATERAL"
231,17,14,50.444,5553.62,0.12152,0.681584,-0.090738,0.715851,-0.94369,0.29126,-0.05321,5550.42,-0.478738,-0.46437,0.460128,-0.586049,-0.09637,0.94828,-0.13517,2.32,2.5,2.58,2.88,2.94,3,2.87,3.88,3.08,3.89,4.1,4.05,4.02,3.76,3.68,3334,13.891667,62090.444667,15.952479,965.907349,-216.924042,1.82497011280679,2.34771993214691,2.30133362847389,11.199814,813.35791,160.679443,99.609116,1199.161377,5.078282,"LATERAL"
232,17,14,50.477,5553.64,0.121283,0.681554,-0.090964,0.715891,-0.9447,0.28964,-0.05422,5550.44,-0.475986,-0.466795,0.458093,-0.587954,-0.11464,0.95449,-0.13307,2.32,2.5,2.58,2.88,2.93,3,2.87,3.88,3.09,3.89,4.1,4.06,4.02,3.76,3.68,3342,13.925,62090.478,15.952479,965.907349,-216.924042,1.82533164940688,2.34800565491597,2.3008690414532,11.178481,813.342346,160.674591,99.635803,1198.979248,4.725475,"LATERAL"
233,17,14,50.483,5553.66,0.121047,0.68158,-0.091152,0.715883,-0.93842,0.29074,-0.05535,5550.46,-0.473075,-0.469422,0.456171,-0.589704,-0.11635,0.94981,-0.13018,2.32,2.5,2.57,2.88,2.93,3,2.87,3.88,3.09,3.89,4.1,4.07,4.03,3.76,3.69,3344,13.933333,62090.486333,15.952479,965.907349,-216.924042,1.82534053946541,2.34807278331849,2.30079714896463,11.169116,813.342896,160.672043,99.625984,1198.959839,4.674094,"LATERAL"
234,17,14,50.518,5553.68,0.120852,0.681567,-0.091353,0.715902,-0.93635,0.29171,-0.05683,5550.48,-0.469641,-0.472466,0.453962,-0.59172,-0.13484,0.95428,-0.13116,2.32,2.5,2.57,2.88,2.93,3,2.86,3.89,3.1,3.89,4.1,4.07,4.03,3.75,3.69,3352,13.966667,62090.519667,15.952479,965.907349,-216.924042,1.82510771182066,2.3483997002436,2.30058238004342,11.132214,813.340393,160.636505,99.515114,1198.93689,4.525523,"LATERAL"
235,17,14,50.523,5553.7,0.120622,0.681545,-0.091564,0.715935,-0.93591,0.28993,-0.05394,5550.5,-0.466104,-0.475953,0.450806,-0.594129,-0.1419,0.9406,-0.12312,2.32,2.5,2.57,2.87,2.92,3,2.86,3.88,3.1,3.89,4.1,4.07,4.04,3.75,3.69,3353,13.970833,62090.523833,15.952479,965.907349,-216.924042,1.82506254284629,2.34843885091314,2.30056512180594,11.116064,813.345947,160.63382,99.494339,1198.928711,4.504673,"LATERAL"
236,17,14,50.558,5553.72,0.120552,0.681485,-0.091733,0.715983,-0.93945,0.2915,-0.05563,5550.52,-0.462934,-0.47931,0.44677,-0.596952,-0.12127,0.92611,-0.11122,2.32,2.5,2.57,2.87,2.92,3,2.86,3.88,3.11,3.89,4.1,4.08,4.04,3.75,3.69,3362,14.008333,62090.561333,15.952479,965.907349,-216.924042,1.82476957000891,2.34890285255577,2.30024173390536,11.058687,813.267578,160.62236,99.344826,1198.883911,4.277834,"LATERAL"
237,17,14,50.564,5553.74,0.12055,0.681444,-0.091836,0.716008,-0.9438,0.29382,-0.05249,5550.54,-0.459901,-0.482901,0.442561,-0.599531,-0.16265,0.93675,-0.13447,2.31,2.5,2.57,2.87,2.92,3,2.85,3.88,3.12,3.89,4.1,4.08,4.04,3.75,3.7,3363,14.0125,62090.5655,15.952479,965.907349,-216.924042,1.82474762688635,2.34896556088758,2.30018937675352,11.044778,813.267639,160.630936,99.330811,1198.879272,4.246401,"LATERAL"
238,17,14,50.598,5553.76,0.120487,0.681446,-0.091991,0.715997,-0.94167,0.29381,-0.05127,5550.56,-0.455553,-0.487226,0.438923,-0.602021,-0.18342,0.92885,-0.16586,2.31,2.49,2.56,2.86,2.92,2.99,2.85,3.88,3.13,3.88,4.1,4.09,4.05,3.74,3.7,3371,14.045833,62090.598833,15.952479,965.907349,-216.924042,1.82458532293627,2.34940317085741,2.29982844621743,10.980004,813.180908,160.772537,99.221321,1198.822266,4.004913,"LATERAL"
239,17,14,50.603,5553.78,0.120415,0.681417,-0.092145,0.716017,-0.94149,0.29177,-0.05059,5550.58,-0.451054,-0.491682,0.436054,-0.603867,-0.18319,0.92442,-0.18572,2.31,2.49,2.56,2.86,2.92,2.99,2.84,3.88,3.13,3.88,4.1,4.09,4.05,3.74,3.7,3372,14.05,62090.603,15.952479,965.907349,-216.924042,1.82455738546859,2.34945899796559,2.29978593281795,10.972005,813.173462,160.788895,99.201881,1198.806152,3.966613,"LATERAL"
240,17,14,50.639,5553.8,0.12016,0.681514,-0.092237,0.715956,-0.94083,0.2887,-0.05554,5550.6,-0.445896,-0.496231,0.433381,-0.605898,-0.27679,0.94974,-0.15909,2.31,2.48,2.55,2.86,2.92,2.99,2.83,3.88,3.14,3.88,4.11,4.1,4.05,3.74,3.71,3381,14.0875,62090.6405,15.952479,965.907349,-216.924042,1.82481816868845,2.35020631540853,2.29890619223892,10.836135,813.123108,160.913879,99.172913,1198.667358,3.450571,"LATERAL"
241,17,14,50.644,5553.82,0.119965,0.681514,-0.092414,0.715965,-0.93802,0.2887,-0.05394,5550.62,-0.441068,-0.500342,0.430393,-0.608176,-0.20115,0.94186,-0.13824,2.32,2.47,2.54,2.86,2.91,2.99,2.83,3.88,3.15,3.87,4.11,4.1,4.06,3.74,3.71,3382,14.091667,62090.644667,15.952479,965.907349,-216.924042,1.82481767543992,2.35025091067036,2.29886154714808,10.820254,813.115723,160.916931,99.162453,1198.649048,3.412256,"LATERAL"
242,17,14,50.679,5553.84,0.119886,0.681525,-0.092424,0.715967,-0.93225,0.2932,-0.05518,5550.64,-0.436521,-0.504257,0.427314,-0.61039,-0.21198,0.92262,-0.12127,2.32,2.46,2.53,2.86,2.92,2.99,2.82,3.87,3.16,3.87,4.11,4.1,4.06,3.74,3.71,3391,14.129167,62090.682167,15.952479,965.907349,-216.924042,1.82491783930467,2.35080777290627,2.29825193947371,10.687745,813.066528,160.927261,99.093796,1198.498291,2.99502,"LATERAL"
243,17,14,50.684,5553.86,0.12023,0.681527,-0.092248,0.71593,-0.93082,0.3005,-0.06187,5550.66,-0.431532,-0.508249,0.424112,-0.612856,-0.29776,0.91249,-0.12088,2.32,2.44,2.53,2.86,2.92,2.99,2.81,3.88,3.16,3.87,4.11,4.1,4.06,3.73,3.72,3392,14.133333,62090.686333,15.952479,965.907349,-216.924042,1.82490996806932,2.35087104924524,2.29819209539366,10.682284,813.058228,160.906952,99.082207,1198.487793,2.956249,"LATERAL"
244,17,14,50.717,5553.88,0.120558,0.6816,-0.092034,0.715833,-0.9389,0.30127,-0.05736,5550.68,-0.426588,-0.512118,0.420085,-0.615862,-0.22621,0.89959,-0.10554,2.33,2.44,2.52,2.87,2.92,2.99,2.81,3.87,3.17,3.86,4.11,4.1,4.06,3.74,3.72,3400,14.166667,62090.719667,15.952479,965.907349,-216.924042,1.82520569802971,2.35148890860031,2.29742505619945,10.621827,813.042114,160.758972,99.073029,1198.342651,2.492657,"LATERAL"
245,17,14,50.759,5553.9,0.120763,0.681715,-0.091926,0.715703,-0.94158,0.29468,-0.05589,5550.7,-0.421669,-0.516032,0.415315,-0.619209,-0.3098,0.92015,-0.10273,2.33,2.43,2.51,2.87,2.92,2.99,2.8,3.87,3.18,3.86,4.11,4.1,4.06,3.74,3.72,3410,14.208333,62090.761333,15.952479,965.907349,-216.924042,1.8262748611731,2.35203186644134,2.29635274901305,10.648829,813.035339,160.588989,99.228264,1197.950439,1.738219,"LATERAL"
246,17,14,50.765,5553.92,0.120896,0.681775,-0.091835,0.715635,-0.94536,0.29068,-0.05622,5550.72,-0.416709,-0.519887,0.410128,-0.622789,-0.30195,0.90379,-0.10127,2.33,2.43,2.5,2.87,2.92,2.99,2.79,3.87,3.19,3.86,4.11,4.1,4.06,3.74,3.73,3411,14.2125,62090.7655,15.952479,965.907349,-216.924042,1.82632788005792,2.35209785240977,2.29626017268589,10.658944,813.034424,160.581329,99.229637,1197.922607,1.674626,"LATERAL"
247,17,14,50.77,5553.94,0.120955,0.681797,-0.091855,0.715601,-0.94484,0.28831,-0.04715,5550.74,-0.412283,-0.523351,0.404851,-0.626277,-0.25793,0.8728,-0.10831,2.33,2.42,2.5,2.88,2.93,2.99,2.78,3.87,3.2,3.86,4.11,4.1,4.06,3.74,3.73,3413,14.220833,62090.773833,15.952479,965.907349,-216.924042,1.82640974955128,2.35219328343285,2.29612371478232,10.684402,813.0401,160.565643,99.224976,1197.859253,1.560284,"LATERAL"
248,17,14,50.799,5553.96,0.120724,0.681936,-0.091919,0.7155,-0.93801,0.28817,-0.04797,5550.76,-0.406935,-0.527464,0.400074,-0.629386,-0.3644,0.88252,-0.12216,2.33,2.43,2.5,2.88,2.94,2.99,2.78,3.87,3.21,3.85,4.11,4.1,4.06,3.73,3.74,3420,14.25,62090.803,15.952479,965.907349,-216.924042,1.82676069913033,2.35267712768933,2.29546326235394,10.771878,813.075806,160.540726,99.221596,1197.651733,1.095835,"LATERAL"
249,17,14,50.805,5553.98,0.120478,0.681907,-0.0922,0.715533,-0.9432,0.28732,-0.04166,5550.78,-0.400286,-0.532306,0.395586,-0.632402,-0.41298,0.89089,-0.12985,2.33,2.42,2.5,2.89,2.94,2.99,2.77,3.87,3.21,3.85,4.1,4.1,4.06,3.74,3.74,3421,14.254167,62090.807167,15.952479,965.907349,-216.924042,1.82686167644011,2.35274358939244,2.29534646651986,10.78194,813.090515,160.540054,99.23468,1197.614258,1.017235,"LATERAL"
250,17,14,50.839,5554,0.120057,0.681899,-0.092566,0.715564,-0.94338,0.2872,-0.04234,5550.8,-0.394272,-0.537108,0.390214,-0.635451,-0.34895,0.87613,-0.12136,2.33,2.42,2.49,2.89,2.95,2.99,2.76,3.87,3.22,3.84,4.11,4.1,4.07,3.74,3.74,3429,14.2875,62090.8405,15.952479,965.907349,-216.924042,1.82816920148067,2.35312921955073,2.29431083074521,10.883919,813.166321,160.541702,99.454521,1197.161377,0.252334,"LATERAL"
251,17,14,50.845,5554.02,0.119675,0.681818,-0.092959,0.715654,-0.94055,0.29159,-0.04536,5550.82,-0.389384,-0.540904,0.384113,-0.638952,-0.38625,0.87898,-0.09607,2.33,2.42,2.49,2.9,2.96,2.99,2.75,3.87,3.22,3.84,4.11,4.1,4.07,3.74,3.75,3431,14.295833,62090.848833,15.952479,965.907349,-216.924042,1.82838647259001,2.35313842944758,2.29419371687582,10.920389,813.173096,160.545181,99.48597,1197.059814,0.126159,"LATERAL"
252,17,14,50.877,5554.04,0.11949,0.681718,-0.093155,0.715755,-0.93731,0.29897,-0.04895,5550.84,-0.383595,-0.544415,0.378453,-0.642837,-0.42104,0.87708,-0.0941,2.34,2.42,2.49,2.9,2.97,2.99,2.74,3.87,3.23,3.83,4.11,4.11,4.07,3.73,3.75,3438,14.325,62090.878,15.952479,965.907349,-216.924042,1.82855675837813,2.35333675897984,2.29390927309865,11.031189,813.239746,160.607178,99.428535,1196.797729,-0.233013,"LATERAL"
253,17,14,50.884,5554.06,0.119505,0.681651,-0.093404,0.715784,-0.94039,0.30382,-0.04998,5550.86,-0.376678,-0.549024,0.372899,-0.646245,-0.45389,0.88346,-0.12064,2.34,2.42,2.49,2.91,2.98,2.99,2.73,3.87,3.23,3.83,4.11,4.1,4.07,3.73,3.75,3440,14.333333,62090.886333,15.952479,965.907349,-216.924042,1.82866598700191,2.35345338104463,2.29373745903626,11.059081,813.262146,160.620667,99.424545,1196.71814,-0.375277,"LATERAL"
254,17,14,50.921,5554.08,0.119382,0.681511,-0.093586,0.715913,-0.93931,0.30132,-0.05338,5550.88,-0.370561,-0.554081,0.366789,-0.648956,-0.44943,0.82312,-0.11836,2.34,2.43,2.49,2.91,2.99,2.99,2.72,3.87,3.24,3.82,4.1,4.1,4.06,3.73,3.76,3449,14.370833,62090.923833,15.952479,965.907349,-216.924042,1.83012119408947,2.3538819911825,2.29258015169371,11.201217,813.35614,160.657791,99.673027,1196.234375,-1.205697,"LATERAL"
255,17,14,50.929,5554.1,0.11917,0.681368,-0.093811,0.716056,-0.94339,0.29783,-0.05082,5550.9,-0.364959,-0.558529,0.360147,-0.652031,-0.47328,0.83744,-0.07743,2.34,2.43,2.49,2.92,3,2.99,2.71,3.87,3.25,3.82,4.1,4.11,4.06,3.73,3.76,3451,14.379167,62090.932167,15.952479,965.907349,-216.924042,1.83049126708431,2.35387676840576,2.29240035000016,11.239841,813.381836,160.658569,99.749367,1196.12207,-1.353794,"LATERAL"
256,17,14,50.957,5554.12,0.119001,0.681204,-0.094001,0.716215,-0.94008,0.29354,-0.05136,5550.92,-0.359152,-0.562936,0.353332,-0.655186,-0.42997,0.86203,-0.05521,2.34,2.43,2.49,2.93,3.01,2.99,2.7,3.87,3.26,3.81,4.1,4.1,4.06,3.74,3.76,3457,14.404167,62090.957167,15.952479,965.907349,-216.924042,1.83124917654735,2.35414230684577,2.29175280980863,11.374555,813.456604,160.680008,99.848808,1195.801025,-1.870245,"LATERAL"
257,17,14,50.965,5554.14,0.118983,0.681025,-0.093997,0.716389,-0.93548,0.29841,-0.05675,5550.94,-0.352624,-0.568594,0.346904,-0.657278,-0.523,0.88232,-0.09063,2.34,2.43,2.5,2.93,3.02,2.99,2.69,3.87,3.26,3.81,4.1,4.1,4.07,3.74,3.77,3459,14.4125,62090.9655,15.952479,965.907349,-216.924042,1.83151525625282,2.3542829067381,2.29147743712572,11.418097,813.483521,160.685638,99.879204,1195.687378,-2.074251,"LATERAL"
258,17,14,51,5554.16,0.119037,0.680907,-0.094109,0.716477,-0.93773,0.30111,-0.05314,5550.96,-0.346576,-0.574264,0.340677,-0.658821,-0.54569,0.82846,-0.12308,2.34,2.43,2.5,2.94,3.03,2.99,2.68,3.87,3.27,3.8,4.1,4.11,4.07,3.73,3.77,3468,14.45,62091.003,15.952479,965.907349,-216.924042,1.83378614641364,2.35476027474594,2.28985045738769,11.618299,813.627136,160.653351,100.333862,1195.092651,-3.130017,"LATERAL"
259,17,14,51.005,5554.18,0.118911,0.68073,-0.094126,0.716664,-0.94188,0.29592,-0.05594,5550.98,-0.3416,-0.579087,0.33381,-0.66071,-0.52016,0.81177,-0.09699,2.33,2.44,2.5,2.95,3.04,2.99,2.67,3.87,3.27,3.8,4.1,4.11,4.06,3.73,3.77,3469,14.454167,62091.007167,15.952479,965.907349,-216.924042,1.83408115482673,2.35480478902262,2.28965604202217,11.644335,813.645691,160.648087,100.407028,1195.050537,-3.226319,"LATERAL"
260,17,14,51.039,5554.2,0.118769,0.680712,-0.094057,0.716713,-0.94312,0.28666,-0.05383,5551,-0.336799,-0.584783,0.326216,-0.66195,-0.54925,0.84645,-0.07213,2.33,2.44,2.5,2.96,3.05,2.99,2.65,3.87,3.28,3.79,4.1,4.11,4.06,3.74,3.77,3477,14.4875,62091.0405,15.952479,965.907349,-216.924042,1.83682377142229,2.35521068708126,2.28784887485017,11.834351,813.796875,160.488495,101.15329,1194.84082,-3.949844,"LATERAL"
261,17,14,51.045,5554.22,0.118864,0.680497,-0.09396,0.716914,-0.9408,0.29095,-0.04984,5551.02,-0.331711,-0.591828,0.318292,-0.662116,-0.56944,0.82479,-0.06606,2.33,2.44,2.5,2.97,3.06,2.99,2.64,3.87,3.28,3.78,4.11,4.1,4.06,3.74,3.77,3479,14.495833,62091.048833,15.952479,965.907349,-216.924042,1.83775963586094,2.35528133298472,2.28729752124059,11.885243,813.8479,160.426483,101.423828,1194.797974,-4.139453,"LATERAL"
262,17,14,51.077,5554.24,0.119015,0.680275,-0.093791,0.717122,-0.93886,0.29752,-0.05195,5551.04,-0.327539,-0.598826,0.310001,-0.661835,-0.61019,0.7549,-0.06927,2.32,2.44,2.5,2.98,3.07,2.99,2.62,3.86,3.28,3.78,4.11,4.1,4.06,3.74,3.77,3486,14.525,62091.078,15.952479,965.907349,-216.924042,1.84191259162363,2.35513344617706,2.28529756294704,12.057351,814.077271,160.173599,102.683006,1194.66394,-4.721399,"LATERAL"
263,17,14,51.083,5554.26,0.119149,0.680109,-0.0936,0.717283,-0.9417,0.29429,-0.05413,5551.06,-0.323063,-0.605292,0.301081,-0.662271,-0.63623,0.71141,-0.04749,2.32,2.44,2.5,2.99,3.07,2.99,2.6,3.87,3.28,3.77,4.11,4.1,4.06,3.74,3.77,3488,14.533333,62091.086333,15.952479,965.907349,-216.924042,1.84297405167727,2.35503202513561,2.28484568917942,12.127161,814.145569,160.096222,103.018456,1194.651978,-4.821502,"LATERAL"
264,17,14,51.119,5554.28,0.119252,0.679851,-0.093537,0.717518,-0.94134,0.28714,-0.05375,5551.08,-0.316624,-0.612215,0.29223,-0.662981,-0.68966,0.71941,-0.0437,2.31,2.44,2.5,3,3.08,2.99,2.59,3.86,3.29,3.76,4.11,4.1,4.07,3.74,3.77,3496,14.566667,62091.119667,15.952479,965.907349,-216.924042,1.84656393778335,2.35497223466408,2.28301631425221,12.435583,814.384399,159.91095,104.072441,1194.468872,-5.426354,"LATERAL"
265,17,14,51.126,5554.3,0.119229,0.679635,-0.093561,0.717724,-0.94076,0.28641,-0.05045,5551.1,-0.309366,-0.619847,0.282926,-0.663351,-0.69315,0.71232,-0.06744,2.31,2.44,2.5,3.01,3.09,2.99,2.57,3.87,3.29,3.76,4.11,4.11,4.06,3.74,3.77,3498,14.575,62091.128,15.952479,965.907349,-216.924042,1.84740709473777,2.35501570942322,2.28252513751416,12.515587,814.433594,159.890884,104.288544,1194.358765,-5.657734,"LATERAL"
266,17,14,51.157,5554.32,0.119176,0.679272,-0.093633,0.718067,-0.94196,0.28683,-0.05423,5551.12,-0.303139,-0.626149,0.27296,-0.664483,-0.66473,0.71089,-0.06238,2.31,2.44,2.5,3.03,3.09,2.99,2.56,3.86,3.29,3.76,4.11,4.11,4.06,3.74,3.77,3505,14.604167,62091.157167,15.952479,965.907349,-216.924042,1.84965368664529,2.35523572169986,2.28110471854729,12.773027,814.566528,159.889999,104.798233,1193.923706,-6.453937,"LATERAL"
267,17,14,51.164,5554.34,0.118947,0.67885,-0.093835,0.718477,-0.94657,0.28427,-0.05219,5551.14,-0.297647,-0.63111,0.262737,-0.66639,-0.66699,0.71172,-0.06011,2.3,2.44,2.51,3.04,3.1,2.99,2.54,3.86,3.29,3.76,4.11,4.1,4.06,3.74,3.77,3507,14.6125,62091.1655,15.952479,965.907349,-216.924042,1.85004880271595,2.35537180578464,2.28075543791194,12.845882,814.598877,159.905502,104.856033,1193.788696,-6.692656,"LATERAL"
268,17,14,51.199,5554.36,0.118636,0.678445,-0.094033,0.718885,-0.94737,0.28826,-0.05396,5551.16,-0.29114,-0.636355,0.252703,-0.668155,-0.72416,0.69653,-0.0908,2.3,2.44,2.51,3.05,3.11,2.99,2.53,3.87,3.29,3.75,4.11,4.1,4.06,3.75,3.77,3516,14.65,62091.203,15.952479,965.907349,-216.924042,1.85133584479938,2.35631578227828,2.2791089140191,13.098702,814.717712,159.983246,104.846794,1192.961426,-8.054828,"LATERAL"
269,17,14,51.206,5554.38,0.118436,0.677936,-0.094131,0.719385,-0.94146,0.29843,-0.05634,5551.18,-0.284746,-0.642024,0.242649,-0.669213,-0.75649,0.66584,-0.09417,2.29,2.44,2.51,3.06,3.12,2.99,2.52,3.87,3.3,3.75,4.11,4.1,4.07,3.74,3.77,3517,14.654167,62091.207167,15.952479,965.907349,-216.924042,1.85148895687733,2.356446501051,2.27889415008265,13.119688,814.725525,159.994171,104.850136,1192.879028,-8.210254,"LATERAL"
270,17,14,51.238,5554.4,0.118378,0.677435,-0.094159,0.719863,-0.93516,0.30413,-0.06316,5551.2,-0.279061,-0.646427,0.233222,-0.67072,-0.7161,0.67482,-0.04309,2.29,2.44,2.51,3.07,3.12,2.99,2.51,3.87,3.3,3.75,4.12,4.1,4.06,3.75,3.77,3525,14.6875,62091.2405,15.952479,965.907349,-216.924042,1.8523634299422,2.35729968332929,2.27755858225284,13.245328,814.796082,160.007782,104.743805,1192.114746,-9.414582,"LATERAL"
271,17,14,51.243,5554.42,0.118401,0.677001,-0.094027,0.720284,-0.93115,0.30129,-0.06918,5551.22,-0.272917,-0.650767,0.225197,-0.671793,-0.74023,0.71089,-0.05727,2.29,2.44,2.51,3.08,3.13,2.99,2.51,3.87,3.3,3.74,4.11,4.1,4.06,3.75,3.76,3526,14.691667,62091.244667,15.952479,965.907349,-216.924042,1.85237701914358,2.35740526427221,2.27744433493446,13.260467,814.803101,160.014175,104.70015,1192.016724,-9.554099,"LATERAL"
272,17,14,51.277,5554.44,0.118658,0.676581,-0.093793,0.720668,-0.92826,0.29825,-0.07403,5551.24,-0.264484,-0.655729,0.218527,-0.672543,-0.82816,0.70119,-0.07274,2.29,2.44,2.51,3.09,3.13,2.99,2.51,3.87,3.3,3.74,4.12,4.1,4.06,3.75,3.76,3534,14.725,62091.278,15.952479,965.907349,-216.924042,1.85203992886221,2.35874380651972,2.27627092518496,13.3096,814.889893,160.018967,104.240204,1191.407837,-10.672146,"LATERAL"
273,17,14,51.282,5554.46,0.119029,0.676219,-0.093596,0.720972,-0.93239,0.29747,-0.07068,5551.26,-0.256145,-0.660386,0.211427,-0.673483,-0.83205,0.63042,-0.07024,2.28,2.45,2.51,3.09,3.13,2.99,2.5,3.87,3.3,3.74,4.11,4.1,4.06,3.75,3.76,3535,14.729167,62091.282167,15.952479,965.907349,-216.924042,1.85195184540594,2.35890828019779,2.27615190180084,13.302994,814.90332,160.009872,104.169945,1191.333984,-10.802237,"LATERAL"
274,17,14,51.319,5554.48,0.119488,0.675859,-0.093292,0.721272,-0.93912,0.29089,-0.07363,5551.28,-0.249462,-0.664216,0.203451,-0.67468,-0.80692,0.57465,-0.03582,2.28,2.45,2.51,3.1,3.14,2.99,2.5,3.86,3.3,3.73,4.12,4.1,4.06,3.75,3.75,3544,14.766667,62091.319667,15.952479,965.907349,-216.924042,1.85165621250648,2.36010179447684,2.27510235845686,13.282809,814.957031,159.86322,103.707336,1190.647949,-11.926126,"LATERAL"
275,17,14,51.324,5554.5,0.119988,0.67551,-0.092929,0.721564,-0.93501,0.28434,-0.08003,5551.3,-0.241757,-0.668272,0.196272,-0.675606,-0.79679,0.59148,-0.01426,2.28,2.45,2.51,3.1,3.14,2.99,2.5,3.87,3.3,3.73,4.11,4.1,4.06,3.75,3.75,3546,14.775,62091.328,15.952479,965.907349,-216.924042,1.85138542307996,2.36033648833974,2.27501063909077,13.273563,814.96991,159.82309,103.550468,1190.509277,-12.122418,"LATERAL"
276,17,14,51.359,5554.52,0.120504,0.675197,-0.092748,0.721794,-0.93874,0.28775,-0.06989,5551.32,-0.232563,-0.672355,0.191194,-0.676238,-0.87742,0.61572,-0.02933,2.28,2.46,2.5,3.1,3.15,2.99,2.5,3.87,3.3,3.74,4.12,4.1,4.06,3.75,3.75,3554,14.808333,62091.361333,15.952479,965.907349,-216.924042,1.85028350613567,2.36133873624905,2.27458824420058,13.197818,815.012817,159.683441,102.906944,1189.9375,-12.948024,"LATERAL"
277,17,14,51.365,5554.54,0.120822,0.674886,-0.092747,0.722031,-0.93828,0.2917,-0.07666,5551.34,-0.223443,-0.675546,0.186161,-0.677536,-0.87866,0.58922,-0.06149,2.28,2.46,2.5,3.11,3.15,2.99,2.5,3.87,3.3,3.74,4.12,4.1,4.06,3.76,3.74,3555,14.8125,62091.3655,15.952479,965.907349,-216.924042,1.85019450923266,2.36146142422355,2.27451173499596,13.194973,815.004028,159.663055,102.836037,1189.85144,-13.069513,"LATERAL"
278,17,14,51.398,5554.56,0.121015,0.674689,-0.09274,0.722184,-0.94109,0.28988,-0.07331,5551.36,-0.216124,-0.677913,0.180119,-0.679177,-0.84474,0.54327,-0.05319,2.29,2.47,2.5,3.11,3.16,2.99,2.5,3.86,3.31,3.74,4.12,4.1,4.06,3.76,3.74,3563,14.845833,62091.398833,15.952479,965.907349,-216.924042,1.8494400809471,2.36260428827354,2.27375831459915,13.074594,814.955688,159.53894,102.324387,1189.371948,-13.916085,"LATERAL"
279,17,14,51.407,5554.58,0.121259,0.674515,-0.09283,0.722294,-0.93821,0.28085,-0.07432,5551.38,-0.209138,-0.680257,0.173951,-0.680627,-0.85386,0.51789,-0.00668,2.29,2.47,2.49,3.12,3.16,2.99,2.5,3.86,3.3,3.75,4.12,4.1,4.05,3.76,3.74,3565,14.854167,62091.407167,15.952479,965.907349,-216.924042,1.8491599725493,2.36290583276896,2.2736027615193,13.037317,814.945129,159.517685,102.178375,1189.279297,-14.097881,"LATERAL"
280,17,14,51.437,5554.6,0.121229,0.67431,-0.093154,0.722449,-0.93609,0.28292,-0.0686,5551.4,-0.20112,-0.683129,0.168465,-0.681546,-0.89669,0.51927,0.00727,2.29,2.48,2.49,3.13,3.17,2.99,2.5,3.86,3.3,3.75,4.12,4.09,4.05,3.76,3.73,3573,14.8875,62091.4405,15.952479,965.907349,-216.924042,1.84774983729488,2.36416279999379,2.27308224134275,12.860577,814.913696,159.448624,101.510666,1188.924927,-14.79464,"LATERAL"
281,17,14,51.445,5554.62,0.121283,0.674089,-0.093495,0.722601,-0.94121,0.29229,-0.0737,5551.42,-0.192167,-0.686236,0.162312,-0.6825,-0.96254,0.50996,-0.0257,2.29,2.49,2.48,3.13,3.17,3,2.51,3.86,3.3,3.75,4.12,4.09,4.05,3.77,3.73,3575,14.895833,62091.448833,15.952479,965.907349,-216.924042,1.84743196609434,2.36458501501786,2.27282362589464,12.808007,814.899048,159.434402,101.347466,1188.841309,-15.016067,"LATERAL"
282,17,14,51.478,5554.64,0.121194,0.673903,-0.093866,0.722742,-0.93487,0.29489,-0.07453,5551.44,-0.185075,-0.688356,0.156551,-0.68367,-0.88234,0.49444,-0.0105,2.29,2.49,2.47,3.13,3.18,3,2.52,3.86,3.3,3.75,4.12,4.09,4.04,3.77,3.73,3582,14.925,62091.478,15.952479,965.907349,-216.924042,1.84640811378333,2.36557962780924,2.27235981672399,12.611065,814.840393,159.420349,100.854347,1188.57373,-15.565864,"LATERAL"
283,17,14,51.483,5554.66,0.121099,0.673739,-0.094205,0.722867,-0.93039,0.2941,-0.07814,5551.46,-0.17958,-0.690436,0.151664,-0.68414,-0.77436,0.47574,0.0316,2.29,2.5,2.46,3.14,3.18,3,2.52,3.86,3.3,3.76,4.12,4.09,4.04,3.77,3.72,3584,14.933333,62091.486333,15.952479,965.907349,-216.924042,1.84608230554095,2.36580152956695,2.27230776974747,12.560534,814.818054,159.417587,100.710739,1188.501953,-15.686991,"LATERAL"
284,17,14,51.519,5554.68,0.121032,0.673641,-0.094615,0.722916,-0.9289,0.29438,-0.0776,5551.48,-0.172979,-0.692986,0.148464,-0.683965,-0.98134,0.5007,0.04902,2.29,2.5,2.46,3.14,3.19,3,2.53,3.86,3.3,3.76,4.12,4.08,4.04,3.77,3.72,3592,14.966667,62091.519667,15.952479,965.907349,-216.924042,1.84440709104064,2.36694497853835,2.27203474866592,12.400866,814.780029,159.382904,100.028061,1188.275757,-16.181494,"LATERAL"
285,17,14,51.524,5554.7,0.120957,0.673537,-0.095081,0.722964,-0.93828,0.29921,-0.07806,5551.5,-0.164759,-0.695484,0.146053,-0.683978,-1.00917,0.48263,0.0264,2.29,2.51,2.45,3.14,3.19,3,2.53,3.86,3.3,3.76,4.12,4.08,4.03,3.77,3.72,3594,14.975,62091.528,15.952479,965.907349,-216.924042,1.84389977112112,2.36722587497518,2.27201742102504,12.375803,814.761292,159.368393,99.83638,1188.231689,-16.280548,"LATERAL"
286,17,14,51.557,5554.72,0.1209,0.673421,-0.095476,0.72303,-0.93881,0.29834,-0.07825,5551.52,-0.15793,-0.697778,0.143087,-0.683878,-0.83228,0.40583,0.02497,2.29,2.52,2.44,3.14,3.2,3,2.54,3.86,3.3,3.76,4.12,4.08,4.02,3.78,3.72,3601,15.004167,62091.557167,15.952479,965.907349,-216.924042,1.84283938796078,2.36773100474767,2.27206291733778,12.233481,814.701843,159.303757,99.424545,1188.090698,-16.495993,"LATERAL"
287,17,14,51.562,5554.74,0.120884,0.673325,-0.095816,0.723077,-0.93241,0.29789,-0.08037,5551.54,-0.153038,-0.701126,0.13942,-0.682322,-0.94106,0.35423,0.06119,2.29,2.52,2.44,3.14,3.2,3,2.55,3.86,3.3,3.77,4.12,4.07,4.01,3.78,3.71,3603,15.0125,62091.5655,15.952479,965.907349,-216.924042,1.84276680497317,2.36789852987513,2.27193114056283,12.186079,814.669556,159.281097,99.377754,1188.060303,-16.587479,"LATERAL"
288,17,14,51.598,5554.76,0.120902,0.673226,-0.096145,0.723122,-0.93157,0.29834,-0.07629,5551.56,-0.145902,-0.705017,0.13636,-0.680492,-0.98757,0.38684,0.09263,2.28,2.53,2.44,3.15,3.2,3,2.56,3.86,3.3,3.77,4.12,4.07,4.01,3.78,3.71,3611,15.045833,62091.598833,15.952479,965.907349,-216.924042,1.84298180296142,2.36863793144477,2.27106830182317,12.006424,814.646057,159.171783,99.333694,1187.932129,-17.052086,"LATERAL"
289,17,14,51.603,5554.78,0.12097,0.673081,-0.096465,0.723203,-0.93604,0.30232,-0.07171,5551.58,-0.138197,-0.709089,0.13253,-0.678624,-0.88021,0.3603,0.08092,2.28,2.54,2.43,3.15,3.21,3,2.57,3.86,3.3,3.78,4.12,4.06,4.01,3.79,3.71,3612,15.05,62091.603,15.952479,965.907349,-216.924042,1.84297069113958,2.36872417281178,2.27098666033362,11.99166,814.651672,159.157181,99.314194,1187.907715,-17.110233,"LATERAL"
290,17,14,51.637,5554.8,0.121002,0.672998,-0.096743,0.723238,-0.93909,0.30158,-0.06437,5551.6,-0.133085,-0.713253,0.128025,-0.676142,-0.77368,0.30582,0.05838,2.28,2.54,2.43,3.15,3.21,3,2.57,3.86,3.29,3.77,4.11,4.06,3.99,3.79,3.71,3621,15.0875,62091.6405,15.952479,965.907349,-216.924042,1.84302278683076,2.3692659401255,2.27040967534469,11.889723,814.703308,159.092117,99.193634,1187.662354,-17.573078,"LATERAL"
291,17,14,51.642,5554.82,0.121055,0.672744,-0.097002,0.723431,-0.93767,0.2979,-0.07014,5551.62,-0.128501,-0.717577,0.123323,-0.673322,-1.06628,0.34206,0.04691,2.27,2.55,2.43,3.15,3.21,3,2.59,3.86,3.29,3.78,4.11,4.05,3.99,3.79,3.71,3622,15.091667,62091.644667,15.952479,965.907349,-216.924042,1.8430295397626,2.36935736063983,2.27031337307298,11.877484,814.709167,159.095215,99.177742,1187.634399,-17.638765,"LATERAL"
