Sample,Hour,Minute,Sec,Stamp,Quat1,Quat2,Quat3,Quat4,AccX,AccY,AccZ,Stamp2,Quat2_1,Quat2_2,Quat2_3,Quat2_4,Acc2_X,Acc2_Y,Acc2_Z,A0,A1,A2,A3,A4,A5,A6,A7,A8,A9,A10,A11,A12,A13,A14,Frame,Time,realTime,BrazoX,BrazoY,BrazoZ,angBrazoX,angBrazoY,angBrazoZ,EspaldaX,EspaldaY,EspaldaZ,refX,refY,refZ,type
2,17,20,31.794,5894.9,-0.371857,0.44038,-0.53867,0.61451,-0.9281,0.33214,-0.03195,5891.64,-0.098352,-0.76068,-0.038374,-0.640485,-0.97185,0.09044,0.15554,2.26,2.5,2.56,2.99,3.13,2.99,2.83,3.89,2.96,3.93,3.96,3.77,3.9,3.88,3.72,2008,8.366667,62431.797667,-3.190606,957.644897,-196.83725,1.87888377816075,2.44457280860907,2.17219845218712,16.053047,812.748779,154.77211,86.754578,1185.078613,-29.011559,"LATERAL"
3,17,20,31.804,5894.92,-0.371872,0.440355,-0.538621,0.614562,-0.92686,0.33287,-0.03135,5891.66,-0.098356,-0.760587,-0.038285,-0.6406,-0.97105,0.09405,0.15416,2.27,2.5,2.57,2.99,3.12,2.99,2.83,3.89,2.96,3.93,3.96,3.77,3.9,3.88,3.72,2010,8.375,62431.806,-3.184017,957.684204,-196.84494,1.87894702258531,2.44446645542428,2.17227148442551,16.051746,812.755737,154.764709,86.780342,1185.100952,-28.998964,"LATERAL"
4,17,20,31.81,5894.94,-0.371897,0.440316,-0.538565,0.614624,-0.92678,0.33123,-0.03162,5891.68,-0.098454,-0.760567,-0.038283,-0.640609,-0.97015,0.0919,0.15362,2.28,2.5,2.57,2.99,3.12,2.99,2.83,3.89,2.96,3.93,3.95,3.77,3.9,3.88,3.72,2011,8.379167,62431.810167,-3.178084,957.704712,-196.847229,1.87897440831903,2.44441897795419,2.17230460974072,16.052048,812.758362,154.766495,86.793198,1185.110352,-28.994677,"LATERAL"
5,17,20,31.823,5894.96,-0.371934,0.440272,-0.538523,0.614669,-0.92775,0.33161,-0.03214,5891.7,-0.098319,-0.76058,-0.038418,-0.640606,-0.97011,0.09229,0.15526,2.29,2.5,2.57,2.98,3.1,2.99,2.83,3.9,2.95,3.93,3.96,3.77,3.9,3.88,3.72,2015,8.395833,62431.826833,-3.16181,957.785156,-196.863312,1.87906959272339,2.44417557536408,2.17250242766643,16.059517,812.761475,154.762024,86.836655,1185.145142,-28.961863,"LATERAL"
6,17,20,31.828,5894.98,-0.371997,0.440203,-0.538473,0.614725,-0.92671,0.33236,-0.03148,5891.72,-0.098264,-0.760604,-0.038245,-0.640596,-0.97126,0.08641,0.15885,2.3,2.5,2.57,2.98,3.09,2.99,2.84,3.9,2.95,3.94,3.96,3.77,3.9,3.88,3.72,2016,8.4,62431.831,-3.158917,957.805542,-196.865326,1.87910368268396,2.44410792657396,2.17255267208206,16.058647,812.765198,154.76445,86.847954,1185.149536,-28.953884,"LATERAL"
7,17,20,31.834,5895,-0.372043,0.440213,-0.538476,0.614688,-0.92759,0.33268,-0.03261,5891.74,-0.098319,-0.760619,-0.038213,-0.640572,-0.9726,0.09269,0.15555,2.32,2.49,2.57,2.97,3.08,2.99,2.84,3.89,2.95,3.94,3.96,3.77,3.9,3.88,3.72,2017,8.404167,62431.835167,-3.157362,957.825684,-196.866806,1.87912849892186,2.44403382374119,2.1726154689708,16.05481,812.768494,154.766434,86.856216,1185.154785,-28.940582,"LATERAL"
8,17,20,31.839,5895.02,-0.372098,0.440151,-0.538429,0.614739,-0.92735,0.33025,-0.03216,5891.76,-0.098036,-0.760358,-0.037907,-0.640943,-0.97206,0.09649,0.15316,2.33,2.49,2.57,2.96,3.06,2.99,2.84,3.9,2.95,3.94,3.96,3.77,3.9,3.88,3.72,2018,8.408333,62431.839333,-3.154115,957.844116,-196.865143,1.8791601389545,2.44399301732232,2.17263891098868,16.054008,812.767395,154.768051,86.868294,1185.165161,-28.933395,"LATERAL"
9,17,20,31.845,5895.04,-0.372139,0.440095,-0.538363,0.614812,-0.92759,0.33097,-0.03413,5891.78,-0.098026,-0.76033,-0.037779,-0.640985,-0.97161,0.09021,0.15742,2.33,2.49,2.58,2.96,3.05,2.99,2.84,3.9,2.95,3.94,3.96,3.77,3.9,3.88,3.72,2020,8.416667,62431.847667,-3.146435,957.877502,-196.862045,1.87919927505096,2.44388499673912,2.17272861010398,16.051868,812.765137,154.775772,86.885155,1185.173218,-28.911873,"LATERAL"
10,17,20,31.85,5895.06,-0.37211,0.440076,-0.538299,0.614899,-0.92782,0.33381,-0.03364,5891.8,-0.097939,-0.760358,-0.037691,-0.64097,-0.97187,0.0899,0.16071,2.34,2.48,2.58,2.95,3.02,2.99,2.84,3.9,2.95,3.94,3.96,3.77,3.9,3.88,3.72,2021,8.420833,62431.851833,-3.145093,957.893127,-196.858337,1.87923312343206,2.44384770110416,2.17274697640849,16.052608,812.766541,154.775665,86.895203,1185.179565,-28.905279,"LATERAL"
11,17,20,31.862,5895.08,-0.372146,0.440017,-0.538245,0.614966,-0.92517,0.33329,-0.03083,5891.82,-0.097893,-0.760376,-0.037548,-0.640965,-0.97128,0.09373,0.1618,2.35,2.48,2.57,2.95,3.01,2.99,2.84,3.9,2.95,3.94,3.96,3.77,3.9,3.88,3.72,2024,8.433333,62431.864333,-3.140638,957.936646,-196.849167,1.87931181164259,2.44373196375969,2.1728202947001,16.053112,812.764282,154.777847,86.920647,1185.197876,-28.880514,"LATERAL"
12,17,20,31.866,5895.1,-0.372083,0.440061,-0.538218,0.614998,-0.92876,0.335,-0.03498,5891.84,-0.097951,-0.760379,-0.037476,-0.640957,-0.97264,0.09173,0.16005,2.35,2.49,2.57,2.95,3,2.99,2.84,3.9,2.95,3.94,3.96,3.77,3.9,3.88,3.72,2025,8.4375,62431.8685,-3.143455,957.955139,-196.848434,1.87936343869936,2.4436679254559,2.17285584401015,16.051899,812.76178,154.781189,86.930992,1185.200562,-28.873753,"LATERAL"
13,17,20,31.916,5895.12,-0.372144,0.440017,-0.538155,0.615047,-0.92964,0.33294,-0.03135,5891.86,-0.097995,-0.760392,-0.037649,-0.640924,-0.97112,0.09174,0.16061,2.35,2.49,2.58,2.95,3,2.99,2.84,3.9,2.95,3.94,3.96,3.77,3.9,3.88,3.72,2037,8.4875,62431.9185,-3.195315,958.093994,-196.765366,1.88002057661249,2.44314559803789,2.17299912532442,16.03677,812.742981,154.790207,87.058861,1185.224854,-28.766739,"LATERAL"
14,17,20,31.921,5895.14,-0.372242,0.439925,-0.538169,0.615041,-0.92794,0.33254,-0.03266,5891.88,-0.098087,-0.760369,-0.037625,-0.640938,-0.96913,0.09028,0.15935,2.35,2.5,2.58,2.94,2.99,2.99,2.84,3.9,2.95,3.94,3.96,3.77,3.9,3.88,3.72,2038,8.491667,62431.922667,-3.200036,958.104614,-196.759827,1.88007950939227,2.44306895242665,2.17304338231524,16.036762,812.742798,154.790131,87.070534,1185.220215,-28.750858,"LATERAL"
15,17,20,31.938,5895.16,-0.372262,0.439946,-0.538204,0.614983,-0.92711,0.33262,-0.03329,5891.9,-0.098154,-0.760367,-0.037601,-0.640932,-0.96858,0.09147,0.15766,2.35,2.5,2.58,2.94,2.98,2.99,2.84,3.9,2.95,3.94,3.96,3.77,3.9,3.88,3.72,2042,8.508333,62431.939333,-3.20097,958.132996,-196.722183,1.88023011135267,2.44293104098098,2.17309531740165,16.031645,812.734741,154.791565,87.110542,1185.218262,-28.703503,"LATERAL"
16,17,20,31.945,5895.18,-0.372301,0.43992,-0.538178,0.615002,-0.92754,0.33412,-0.03373,5891.92,-0.098281,-0.760369,-0.037495,-0.640916,-0.97079,0.0918,0.1548,2.35,2.5,2.58,2.94,2.98,2.99,2.84,3.9,2.95,3.94,3.96,3.78,3.9,3.88,3.72,2044,8.516667,62431.947667,-3.197632,958.152466,-196.70224,1.88033005456608,2.44285370656558,2.17311479710873,16.034948,812.731506,154.794189,87.142372,1185.223633,-28.678316,"LATERAL"
17,17,20,31.995,5895.2,-0.372355,0.439945,-0.538159,0.614967,-0.92758,0.33276,-0.03455,5891.94,-0.098432,-0.760377,-0.037408,-0.640889,-0.97171,0.09119,0.15541,2.34,2.5,2.58,2.94,2.97,2.99,2.84,3.89,2.95,3.94,3.96,3.78,3.9,3.88,3.72,2056,8.566667,62431.997667,-3.136538,958.296997,-196.537262,1.88111628739836,2.44237368164156,2.17313208028979,16.060976,812.732788,154.836548,87.422287,1185.268433,-28.515133,"LATERAL"
18,17,20,32,5895.22,-0.372398,0.439929,-0.538101,0.615003,-0.92657,0.33214,-0.03418,5891.96,-0.098524,-0.760373,-0.037424,-0.640879,-0.97137,0.09215,0.15726,2.34,2.5,2.58,2.94,2.96,2.99,2.84,3.9,2.95,3.94,3.96,3.77,3.9,3.88,3.72,2057,8.570833,62432.001833,-3.133349,958.316284,-196.519241,1.88123521884974,2.44232322927559,2.17311122643821,16.062729,812.736267,154.842758,87.45813,1185.275757,-28.503935,"LATERAL"
19,17,20,32.018,5895.24,-0.37242,0.439913,-0.53804,0.615055,-0.92653,0.33125,-0.03592,5891.98,-0.098728,-0.760397,-0.03738,-0.640821,-0.96915,0.09387,0.15822,2.34,2.5,2.58,2.95,2.95,2.99,2.84,3.9,2.96,3.94,3.96,3.78,3.9,3.88,3.72,2061,8.5875,62432.0185,-3.137736,958.388794,-196.43367,1.88196665156483,2.44201176311793,2.17298369372465,16.090651,812.748413,154.869659,87.657631,1185.282227,-28.454399,"LATERAL"
20,17,20,32.023,5895.26,-0.372466,0.439907,-0.537979,0.615085,-0.92632,0.33269,-0.03561,5892,-0.09887,-0.760449,-0.037399,-0.640736,-0.96828,0.09309,0.1571,2.33,2.5,2.58,2.95,2.93,2.99,2.84,3.89,2.96,3.94,3.96,3.78,3.9,3.88,3.72,2063,8.595833,62432.026833,-3.156037,958.426453,-196.391022,1.8824708437111,2.44182656107257,2.17286411775633,16.110895,812.758057,154.883102,87.779465,1185.279053,-28.445021,"LATERAL"
21,17,20,32.079,5895.28,-0.372504,0.43989,-0.537927,0.615121,-0.92664,0.33109,-0.03564,5892.02,-0.099053,-0.760489,-0.037292,-0.640667,-0.96741,0.09105,0.1585,2.33,2.49,2.58,2.95,2.92,2.99,2.84,3.89,2.96,3.94,3.96,3.77,3.9,3.88,3.72,2076,8.65,62432.081,-3.069854,958.425171,-196.30191,1.88645265915441,2.44099150446728,2.17124097461017,16.32933,812.943481,154.857025,88.983093,1185.104126,-28.763235,"LATERAL"
22,17,20,32.085,5895.3,-0.372506,0.43992,-0.53791,0.615113,-0.92746,0.33064,-0.03449,5892.04,-0.099245,-0.760518,-0.037235,-0.640606,-0.96763,0.09215,0.15866,2.32,2.49,2.57,2.95,2.92,2.99,2.84,3.89,2.96,3.94,3.96,3.78,3.9,3.88,3.72,2077,8.654167,62432.085167,-3.025029,958.411499,-196.312271,1.88670876575483,2.44095751048415,2.17111472779547,16.340294,812.961914,154.848358,89.100662,1185.085327,-28.803471,"LATERAL"
23,17,20,32.089,5895.32,-0.372574,0.439898,-0.537849,0.61514,-0.92854,0.33173,-0.03442,5892.06,-0.099312,-0.760563,-0.037325,-0.640538,-0.96936,0.093,0.15874,2.32,2.49,2.57,2.95,2.92,2.99,2.84,3.89,2.96,3.94,3.96,3.78,3.9,3.88,3.72,2078,8.658333,62432.089333,-2.97719,958.41095,-196.32457,1.88693099482347,2.44086603287498,2.17107061455193,16.365622,812.981812,154.830429,89.206009,1185.054688,-28.835876,"LATERAL"
24,17,20,32.139,5895.34,-0.372636,0.439873,-0.537817,0.615148,-0.927,0.33165,-0.03442,5892.08,-0.099447,-0.760627,-0.037333,-0.64044,-0.96463,0.09473,0.15878,2.32,2.49,2.57,2.95,2.91,2.99,2.84,3.89,2.96,3.94,3.96,3.78,3.9,3.88,3.72,2090,8.708333,62432.139333,-2.026631,958.176025,-196.609589,1.88748699535681,2.44078307936472,2.17080556397234,16.598763,813.130615,154.661469,90.329628,1184.844116,-29.156044,"LATERAL"
25,17,20,32.145,5895.36,-0.372641,0.439936,-0.537847,0.615073,-0.92576,0.33201,-0.03488,5892.1,-0.099451,-0.760661,-0.037328,-0.640399,-0.96694,0.09134,0.15641,2.32,2.49,2.57,2.95,2.91,2.99,2.84,3.89,2.96,3.94,3.96,3.78,3.9,3.88,3.72,2092,8.716667,62432.147667,-1.857386,958.11499,-196.666824,1.88743462625883,2.44083689242065,2.17078190543415,16.629528,813.145264,154.631927,90.487282,1184.801147,-29.213326,"LATERAL"
26,17,20,32.15,5895.38,-0.372667,0.439936,-0.537812,0.615088,-0.92587,0.33231,-0.03695,5892.12,-0.099571,-0.760755,-0.037274,-0.640271,-0.97018,0.09215,0.15231,2.32,2.49,2.57,2.95,2.91,2.99,2.84,3.89,2.96,3.94,3.96,3.78,3.9,3.88,3.72,2093,8.720833,62432.151833,-1.776835,958.079102,-196.699066,1.88740479442818,2.4408703613578,2.17076544994374,16.635201,813.154663,154.617325,90.561592,1184.776978,-29.245667,"LATERAL"
27,17,20,32.195,5895.4,-0.372559,0.440004,-0.537855,0.615068,-0.92676,0.33238,-0.03329,5892.14,-0.099664,-0.760833,-0.037239,-0.640166,-0.97362,0.0884,0.15541,2.32,2.49,2.57,2.95,2.91,2.99,2.84,3.9,2.96,3.94,3.96,3.78,3.9,3.88,3.72,2104,8.766667,62432.197667,-0.93111,957.630371,-196.960205,1.8869970810799,2.44170430508373,2.17014216695281,16.672794,813.218933,154.522629,91.296135,1184.496826,-29.652632,"LATERAL"
28,17,20,32.2,5895.42,-0.372635,0.439974,-0.537828,0.615067,-0.92564,0.33107,-0.03343,5892.16,-0.099505,-0.760894,-0.037234,-0.64012,-0.97245,0.09049,0.15831,2.33,2.49,2.57,2.95,2.91,2.99,2.84,3.89,2.96,3.94,3.96,3.78,3.9,3.88,3.72,2105,8.770833,62432.201833,-0.872203,957.591064,-196.975143,1.88699681307433,2.44177254709482,2.17007014920181,16.6702,813.221741,154.519287,91.35453,1184.469482,-29.685999,"LATERAL"
29,17,20,32.218,5895.44,-0.372719,0.439939,-0.537806,0.615061,-0.92829,0.33022,-0.0351,5892.18,-0.099428,-0.761007,-0.037177,-0.64,-0.97089,0.09495,0.16258,2.33,2.49,2.57,2.95,2.91,2.99,2.84,3.9,2.96,3.94,3.96,3.78,3.9,3.88,3.72,2109,8.7875,62432.2185,-0.682958,957.452454,-197.023651,1.88703988251641,2.44195221646928,2.16985274461037,16.66074,813.228699,154.514008,91.557472,1184.369019,-29.784933,"LATERAL"
30,17,20,32.222,5895.46,-0.372686,0.439972,-0.537834,0.615032,-0.92843,0.33327,-0.03472,5892.2,-0.099505,-0.761273,-0.037258,-0.639667,-0.96887,0.09935,0.16525,2.33,2.49,2.57,2.95,2.9,2.99,2.84,3.89,2.96,3.94,3.96,3.78,3.9,3.88,3.71,2110,8.791667,62432.222667,-0.645084,957.418335,-197.031174,1.88706421817061,2.44200065196161,2.16978605394394,16.659191,813.229553,154.513474,91.602837,1184.345703,-29.807648,"LATERAL"
31,17,20,32.259,5895.48,-0.372739,0.439977,-0.537807,0.61502,-0.92772,0.33486,-0.0339,5892.22,-0.099549,-0.761613,-0.037447,-0.639244,-0.95,0.1042,0.16898,2.33,2.49,2.57,2.95,2.9,2.99,2.84,3.9,2.96,3.94,3.96,3.78,3.9,3.88,3.71,2119,8.829167,62432.260167,-0.426501,957.184326,-197.00528,1.88714048547204,2.44240817510765,2.16930641981463,16.622171,813.236755,154.560349,91.846123,1184.197388,-29.893461,"LATERAL"
32,17,20,32.265,5895.5,-0.372688,0.4401,-0.537842,0.614932,-0.9273,0.33341,-0.03505,5892.24,-0.099716,-0.762173,-0.037796,-0.63853,-0.94449,0.10106,0.14709,2.33,2.49,2.56,2.95,2.9,2.99,2.84,3.9,2.96,3.94,3.96,3.78,3.9,3.88,3.72,2121,8.8375,62432.2685,-0.404386,957.148071,-196.973999,1.88718600836194,2.44248355603059,2.16919772877707,16.617592,813.235291,154.573425,91.882019,1184.177856,-29.887098,"LATERAL"
33,17,20,32.295,5895.52,-0.372707,0.44013,-0.53773,0.614997,-0.92953,0.33346,-0.0321,5892.26,-0.099872,-0.762728,-0.038013,-0.637829,-0.96599,0.09131,0.13257,2.33,2.49,2.56,2.95,2.9,2.99,2.84,3.89,2.96,3.94,3.96,3.78,3.9,3.88,3.72,2128,8.866667,62432.297667,-0.380027,957.098816,-196.830322,1.88755261225016,2.44252891464375,2.16891667415448,16.615419,813.216248,154.616714,92.005867,1184.127808,-29.819258,"LATERAL"
34,17,20,32.3,5895.54,-0.372688,0.440182,-0.537543,0.615135,-0.93105,0.33487,-0.03097,5892.28,-0.099988,-0.763184,-0.038114,-0.63726,-0.98329,0.0817,0.13255,2.32,2.49,2.56,2.95,2.9,2.99,2.84,3.9,2.96,3.94,3.96,3.78,3.9,3.88,3.72,2129,8.870833,62432.301833,-0.378036,957.096924,-196.810699,1.88761177152677,2.44253036677992,2.16887750346649,16.611523,813.213623,154.620499,92.025139,1184.127686,-29.808138,"LATERAL"
35,17,20,32.359,5895.56,-0.372638,0.440251,-0.537376,0.615262,-0.93277,0.33275,-0.02827,5892.3,-0.099582,-0.763414,-0.037977,-0.637056,-0.97295,0.08543,0.13904,2.32,2.49,2.56,2.95,2.9,2.99,2.84,3.89,2.96,3.94,3.96,3.78,3.9,3.88,3.72,2143,8.929167,62432.360167,-0.33519,957.24176,-196.631195,1.88802828038258,2.44200719937613,2.16916618581909,16.558821,813.15625,154.630188,92.176643,1184.151245,-29.573631,"LATERAL"
36,17,20,32.364,5895.58,-0.372725,0.440175,-0.537123,0.615484,-0.93563,0.32825,-0.02917,5892.32,-0.099072,-0.763619,-0.037725,-0.636905,-0.96308,0.09014,0.15236,2.32,2.49,2.56,2.96,2.9,2.99,2.84,3.9,2.96,3.94,3.96,3.78,3.9,3.88,3.71,2144,8.933333,62432.364333,-0.323339,957.261536,-196.626266,1.8880019962305,2.44193681026798,2.169257426947,16.551579,813.147156,154.629883,92.179451,1184.153564,-29.549301,"LATERAL"
37,17,20,32.369,5895.6,-0.372853,0.440106,-0.536926,0.615628,-0.93263,0.32575,-0.03102,5892.34,-0.098521,-0.763766,-0.037407,-0.636833,-0.95867,0.09621,0.16596,2.32,2.49,2.56,2.95,2.9,2.99,2.84,3.9,2.96,3.94,3.96,3.78,3.9,3.88,3.71,2146,8.941667,62432.372667,-0.301561,957.293945,-196.620407,1.88798949526619,2.44180459391706,2.1694053251444,16.540297,813.126892,154.622711,92.197327,1184.15979,-29.507891,"LATERAL"
38,17,20,32.395,5895.62,-0.373028,0.43996,-0.536761,0.61577,-0.92592,0.32811,-0.03203,5892.36,-0.097961,-0.763943,-0.037168,-0.636721,-0.96305,0.09091,0.17672,2.33,2.49,2.56,2.96,2.9,2.99,2.84,3.89,2.96,3.94,3.96,3.78,3.9,3.88,3.72,2152,8.966667,62432.397667,-0.219555,957.381836,-196.614349,1.88778724055662,2.44141808856706,2.1699430254947,16.468754,813.084839,154.622406,92.221939,1184.172852,-29.37085,"LATERAL"
39,17,20,32.4,5895.64,-0.373273,0.439786,-0.536644,0.615848,-0.92419,0.33039,-0.03767,5892.38,-0.09732,-0.764093,-0.03682,-0.63666,-0.96788,0.08939,0.18623,2.33,2.49,2.56,2.96,2.9,2.99,2.84,3.89,2.96,3.94,3.96,3.78,3.9,3.88,3.71,2153,8.970833,62432.401833,-0.206027,957.394592,-196.613937,1.88774997135185,2.44133714757489,2.17005236444529,16.45178,813.076111,154.623642,92.224876,1184.169922,-29.343822,"LATERAL"
40,17,20,32.458,5895.66,-0.373537,0.439592,-0.536608,0.615857,-0.92603,0.32962,-0.04103,5892.4,-0.09669,-0.764364,-0.036569,-0.636445,-0.97076,0.09502,0.1878,2.33,2.49,2.56,2.96,2.9,2.99,2.84,3.89,2.96,3.94,3.96,3.78,3.9,3.88,3.71,2167,9.029167,62432.460167,-0.121006,957.462891,-196.632233,1.88728661737743,2.44066753571234,2.17105495075671,16.24441,812.944763,154.674362,92.183754,1184.121094,-29.108629,"LATERAL"
41,17,20,32.463,5895.68,-0.373775,0.439389,-0.536617,0.61585,-0.92559,0.32718,-0.04503,5892.42,-0.096085,-0.764582,-0.036308,-0.636289,-0.97735,0.0956,0.18068,2.32,2.49,2.56,2.96,2.9,2.99,2.84,3.9,2.96,3.94,3.96,3.78,3.91,3.88,3.71,2168,9.033333,62432.464333,-0.131394,957.462646,-196.624542,1.887304410888,2.44061724371722,2.17109683944255,16.230478,812.934814,154.67836,92.179863,1184.114868,-29.087997,"LATERAL"
42,17,20,32.468,5895.7,-0.373936,0.439194,-0.53665,0.615863,-0.92623,0.33092,-0.04503,5892.44,-0.095542,-0.764693,-0.036079,-0.636251,-0.9822,0.08979,0.17875,2.32,2.49,2.56,2.96,2.9,2.99,2.84,3.89,2.96,3.94,3.96,3.78,3.9,3.88,3.71,2169,9.0375,62432.4685,-0.144437,957.468689,-196.619186,1.88730261174628,2.44053287103179,2.17118719592071,16.214952,812.928345,154.684494,92.167343,1184.1073,-29.058659,"LATERAL"
43,17,20,32.494,5895.72,-0.374112,0.439004,-0.536669,0.615874,-0.92475,0.33303,-0.04429,5892.46,-0.094995,-0.764803,-0.036057,-0.636201,-0.9801,0.08738,0.18391,2.32,2.49,2.56,2.96,2.9,2.99,2.84,3.89,2.96,3.94,3.96,3.78,3.9,3.88,3.71,2176,9.066667,62432.497667,-0.301154,957.486633,-196.533371,1.88732874027412,2.44019184748946,2.17153117879279,16.122681,812.8573,154.767517,92.022743,1184.071655,-28.880045,"LATERAL"
44,17,20,32.499,5895.74,-0.374258,0.438824,-0.536705,0.615883,-0.92489,0.33357,-0.04464,5892.48,-0.094554,-0.764899,-0.036044,-0.636153,-0.97503,0.08787,0.18223,2.32,2.49,2.56,2.96,2.9,2.99,2.84,3.89,2.96,3.94,3.96,3.78,3.91,3.88,3.71,2177,9.070833,62432.501833,-0.329148,957.488281,-196.516342,1.88733680002349,2.44016505352843,2.1715543924054,16.106724,812.850647,154.777786,91.994957,1184.06311,-28.861084,"LATERAL"
45,17,20,32.555,5895.76,-0.374345,0.438693,-0.536712,0.615918,-0.92637,0.33282,-0.04194,5892.5,-0.094205,-0.76508,-0.036109,-0.635983,-0.97227,0.09087,0.17526,2.32,2.49,2.56,2.96,2.9,2.99,2.84,3.9,2.96,3.94,3.96,3.77,3.9,3.88,3.71,2190,9.125,62432.556,-0.76509,957.503296,-196.221603,1.88759624944719,2.43977191410288,2.17180537018789,15.998108,812.740784,154.938995,91.641579,1184.026001,-28.487812,"LATERAL"
46,17,20,32.56,5895.78,-0.374432,0.438613,-0.536699,0.615933,-0.92698,0.33241,-0.03969,5892.52,-0.093982,-0.765268,-0.036095,-0.635791,-0.97138,0.09239,0.17043,2.32,2.49,2.56,2.96,2.9,2.99,2.84,3.89,2.96,3.94,3.96,3.78,3.9,3.88,3.71,2191,9.129167,62432.560167,-0.80448,957.500488,-196.188095,1.88763827507942,2.43977078362125,2.17177988884235,15.990961,812.729126,154.952164,91.613625,1184.021973,-28.461281,"LATERAL"
47,17,20,32.577,5895.8,-0.374379,0.438621,-0.536713,0.615947,-0.92447,0.33221,-0.03931,5892.54,-0.093855,-0.765419,-0.036005,-0.635632,-0.97048,0.09242,0.16847,2.32,2.49,2.56,2.96,2.9,2.99,2.84,3.9,2.96,3.94,3.96,3.78,3.91,3.88,3.72,2196,9.15,62432.581,-0.981918,957.492798,-196.041885,1.88784559303729,2.43976282932215,2.17165664763986,15.951749,812.682983,155.021332,91.496437,1184.017212,-28.341927,"LATERAL"
48,17,20,32.582,5895.82,-0.374414,0.438593,-0.536666,0.615987,-0.9269,0.3284,-0.03673,5892.56,-0.093685,-0.765532,-0.035791,-0.635533,-0.96938,0.09005,0.16647,2.32,2.49,2.56,2.96,2.9,2.99,2.84,3.9,2.96,3.94,3.96,3.78,3.9,3.88,3.71,2197,9.154167,62432.585167,-1.018301,957.492859,-196.018539,1.88789000797887,2.43974811399494,2.17164399026794,15.94514,812.673462,155.034698,91.473,1184.015503,-28.320902,"LATERAL"
49,17,20,32.615,5895.84,-0.37442,0.438608,-0.536587,0.616041,-0.92875,0.32601,-0.03819,5892.58,-0.093638,-0.765618,-0.035562,-0.635449,-0.96777,0.08881,0.16666,2.32,2.49,2.56,2.96,2.9,2.99,2.84,3.9,2.96,3.94,3.96,3.78,3.9,3.88,3.71,2205,9.1875,62432.6185,-1.265349,957.486816,-195.835022,1.88821558241347,2.43972851578018,2.17145776542641,15.890343,812.632568,155.102661,91.315475,1184.000244,-28.186996,"LATERAL"
50,17,20,32.62,5895.86,-0.374462,0.438738,-0.536566,0.615942,-0.92869,0.32671,-0.03939,5892.6,-0.093611,-0.765694,-0.035406,-0.635371,-0.96259,0.08915,0.17083,2.32,2.49,2.56,2.96,2.9,2.99,2.84,3.9,2.96,3.94,3.96,3.78,3.9,3.88,3.71,2206,9.191667,62432.622667,-1.29423,957.487671,-195.813446,1.8882386585955,2.43974429820249,2.17142640013038,15.879253,812.625366,155.112183,91.292061,1184.001587,-28.174971,"LATERAL"
51,17,20,32.655,5895.88,-0.3745,0.438768,-0.536546,0.615914,-0.9262,0.32826,-0.04177,5892.62,-0.093651,-0.765724,-0.035123,-0.635344,-0.95958,0.09035,0.17672,2.32,2.49,2.56,2.96,2.91,2.99,2.84,3.9,2.96,3.94,3.96,3.78,3.9,3.88,3.71,2214,9.225,62432.656,-1.516845,957.465637,-195.634354,1.88848461384417,2.43988090548267,2.1711254278541,15.815917,812.606873,155.153198,91.136467,1184.000122,-28.073671,"LATERAL"
52,17,20,32.66,5895.9,-0.37456,0.438786,-0.536562,0.615852,-0.92554,0.32921,-0.04238,5892.64,-0.093716,-0.765738,-0.034827,-0.635334,-0.96357,0.09084,0.17943,2.32,2.49,2.56,2.96,2.91,2.99,2.84,3.9,2.96,3.94,3.96,3.78,3.91,3.88,3.71,2215,9.229167,62432.660167,-1.542909,957.46228,-195.614136,1.88850266483202,2.43992102530615,2.17107150276591,15.814485,812.603699,155.155914,91.115318,1184.004028,-28.066961,"LATERAL"
53,17,20,32.719,5895.92,-0.374643,0.438806,-0.536591,0.615762,-0.92678,0.32891,-0.04074,5892.66,-0.093957,-0.76578,-0.034709,-0.635255,-0.96695,0.09229,0.18124,2.32,2.49,2.56,2.96,2.91,2.99,2.84,3.9,2.96,3.94,3.96,3.78,3.9,3.88,3.71,2230,9.291667,62432.722667,-1.884885,957.393066,-195.406235,1.88861126042302,2.44036756193276,2.17052998287206,15.736079,812.569946,155.175354,90.801285,1184.013794,-27.996422,"LATERAL"
54,17,20,32.724,5895.94,-0.374717,0.438814,-0.536643,0.615665,-0.92775,0.33055,-0.04142,5892.68,-0.094348,-0.765726,-0.034583,-0.635268,-0.96753,0.09286,0.181,2.32,2.49,2.56,2.96,2.91,2.99,2.84,3.89,2.96,3.94,3.96,3.78,3.91,3.88,3.71,2231,9.295833,62432.726833,-1.904868,957.385681,-195.397537,1.88861405025354,2.44041458955313,2.17047845109177,15.732337,812.565125,155.171066,90.782127,1184.015503,-28.000271,"LATERAL"
55,17,20,32.728,5895.96,-0.37476,0.438781,-0.536713,0.615602,-0.92714,0.33255,-0.04046,5892.7,-0.094778,-0.765686,-0.034646,-0.635249,-0.96652,0.08763,0.17901,2.32,2.49,2.56,2.96,2.91,2.99,2.84,3.9,2.96,3.94,3.96,3.78,3.9,3.88,3.71,2232,9.3,62432.731,-1.924875,957.376953,-195.389603,1.88861978146075,2.44044447134778,2.17044318443235,15.727643,812.559814,155.170273,90.764267,1184.013794,-28.000011,"LATERAL"
56,17,20,32.773,5895.98,-0.374852,0.438758,-0.536808,0.615479,-0.92669,0.33388,-0.03981,5892.72,-0.095175,-0.765662,-0.034588,-0.635222,-0.9676,0.0851,0.17782,2.32,2.49,2.56,2.96,2.91,2.99,2.84,3.89,2.96,3.94,3.96,3.78,3.9,3.88,3.71,2243,9.345833,62432.776833,-2.121628,957.280762,-195.35434,1.88859226196872,2.44065876633334,2.17023398276522,15.654739,812.525513,155.182892,90.561714,1183.963379,-28.012449,"LATERAL"
57,17,20,32.779,5896,-0.374839,0.438734,-0.53695,0.615381,-0.92578,0.33367,-0.03885,5892.74,-0.095542,-0.76565,-0.034569,-0.635183,-0.9691,0.0863,0.17542,2.32,2.49,2.56,2.96,2.91,2.99,2.84,3.9,2.96,3.94,3.96,3.78,3.9,3.88,3.7,2244,9.35,62432.781,-2.13816,957.270691,-195.354584,1.88859688281814,2.4406727115647,2.17021628261143,15.648775,812.526611,155.188858,90.547714,1183.958984,-28.014807,"LATERAL"
58,17,20,32.799,5896.02,-0.374924,0.438724,-0.537034,0.615262,-0.92871,0.33329,-0.03768,5892.76,-0.095892,-0.765605,-0.034745,-0.635174,-0.96887,0.09127,0.17006,2.32,2.49,2.56,2.96,2.91,2.99,2.84,3.89,2.96,3.94,3.96,3.78,3.9,3.88,3.71,2249,9.370833,62432.801833,-2.213256,957.219849,-195.363022,1.88857857558324,2.44074964221693,2.17014654591927,15.621528,812.515381,155.192123,90.471649,1183.933105,-28.032761,"LATERAL"
59,17,20,32.804,5896.04,-0.374998,0.438734,-0.537103,0.61515,-0.9288,0.33126,-0.03601,5892.78,-0.096167,-0.765579,-0.034894,-0.635156,-0.96997,0.09091,0.16769,2.32,2.49,2.56,2.96,2.91,2.99,2.84,3.89,2.96,3.94,3.96,3.78,3.91,3.88,3.71,2250,9.375,62432.806,-2.221147,957.208984,-195.361511,1.88856771172364,2.44078793789997,2.17011294607815,15.609597,812.515137,155.195313,90.460747,1183.929688,-28.039389,"LATERAL"
60,17,20,32.855,5896.06,-0.375017,0.438798,-0.537172,0.615032,-0.92911,0.32942,-0.03765,5892.8,-0.096049,-0.765581,-0.035166,-0.635156,-0.96877,0.08936,0.17132,2.32,2.49,2.56,2.96,2.91,2.99,2.84,3.9,2.96,3.94,3.96,3.78,3.9,3.88,3.71,2262,9.425,62432.856,-2.375669,957.066956,-195.3936,1.88853372013539,2.44099026879739,2.16992050017669,15.551474,812.466064,155.196899,90.304703,1183.846069,-28.104076,"LATERAL"
61,17,20,32.86,5896.08,-0.374994,0.4389,-0.537191,0.614957,-0.92625,0.33179,-0.03638,5892.82,-0.096027,-0.765659,-0.035293,-0.635059,-0.96683,0.09242,0.17126,2.32,2.49,2.56,2.96,2.91,2.99,2.84,3.89,2.96,3.94,3.96,3.78,3.91,3.88,3.71,2263,9.429167,62432.860167,-2.388879,957.054138,-195.394897,1.8885393634301,2.44100904799147,2.16989703065363,15.549301,812.462585,155.197495,90.293312,1183.837402,-28.11071,"LATERAL"
62,17,20,32.877,5896.1,-0.374923,0.439037,-0.53722,0.614877,-0.92564,0.33057,-0.03638,5892.84,-0.095998,-0.765734,-0.035433,-0.634965,-0.96906,0.09103,0.16806,2.32,2.49,2.56,2.96,2.91,2.99,2.84,3.9,2.96,3.94,3.96,3.79,3.91,3.88,3.71,2268,9.45,62432.881,-2.456948,956.984192,-195.40918,1.88862790909506,2.44112554639959,2.16971729839641,15.529365,812.444214,155.194,90.254112,1183.799316,-28.161963,"LATERAL"
63,17,20,32.882,5896.12,-0.37486,0.439132,-0.537175,0.614888,-0.92948,0.32835,-0.03409,5892.86,-0.095837,-0.765733,-0.035584,-0.634981,-0.97103,0.09262,0.16717,2.32,2.49,2.56,2.96,2.91,2.99,2.84,3.9,2.96,3.94,3.96,3.78,3.9,3.88,3.71,2269,9.454167,62432.885167,-2.467947,956.969543,-195.409317,1.88865303655426,2.44114297051854,2.16968283662124,15.527,812.442383,155.192474,90.25013,1183.787842,-28.17066,"LATERAL"
64,17,20,32.938,5896.14,-0.374817,0.439206,-0.537154,0.614879,-0.93354,0.32783,-0.03416,5892.88,-0.095736,-0.765768,-0.035741,-0.634947,-0.96715,0.09094,0.16994,2.32,2.49,2.56,2.96,2.91,2.99,2.84,3.89,2.96,3.94,3.96,3.78,3.91,3.88,3.71,2282,9.508333,62432.939333,-2.578628,956.764954,-195.435333,1.88890942400279,2.44154002846623,2.16909896117317,15.485678,812.414673,155.168945,90.213303,1183.663086,-28.336885,"LATERAL"
65,17,20,32.944,5896.16,-0.374862,0.43932,-0.537188,0.61474,-0.93119,0.32769,-0.03493,5892.9,-0.095486,-0.765704,-0.035863,-0.635054,-0.96514,0.09413,0.16985,2.32,2.49,2.56,2.96,2.91,2.99,2.84,3.9,2.96,3.94,3.96,3.78,3.91,3.88,3.71,2284,9.516667,62432.947667,-2.587934,956.73175,-195.436752,1.8889400664448,2.44163348940822,2.16898044661271,15.484016,812.404541,155.160095,90.212166,1183.646606,-28.368196,"LATERAL"
66,17,20,32.949,5896.18,-0.374859,0.439394,-0.537206,0.614673,-0.92923,0.32874,-0.03488,5892.92,-0.095421,-0.765717,-0.035955,-0.635043,-0.96476,0.09401,0.16957,2.32,2.49,2.56,2.96,2.91,2.99,2.84,3.9,2.96,3.94,3.96,3.78,3.9,3.88,3.7,2285,9.520833,62432.951833,-2.591528,956.718445,-195.437042,1.88896083484363,2.44167491547525,2.16892332415042,15.482976,812.401184,155.157455,90.214531,1183.641479,-28.382298,"LATERAL"
67,17,20,32.995,5896.2,-0.374727,0.439562,-0.537303,0.614549,-0.93009,0.32818,-0.03507,5892.94,-0.095412,-0.765725,-0.036003,-0.635032,-0.96687,0.09396,0.16833,2.32,2.49,2.56,2.96,2.91,2.99,2.84,3.89,2.96,3.94,3.96,3.78,3.91,3.88,3.71,2296,9.566667,62432.997667,-2.566417,956.527954,-195.437912,1.88907137167084,2.44224071475473,2.16825353443713,15.458635,812.388367,155.114182,90.268295,1183.552979,-28.551899,"LATERAL"
68,17,20,33,5896.22,-0.374718,0.439635,-0.537311,0.614496,-0.92782,0.32865,-0.03282,5892.96,-0.094918,-0.765605,-0.036431,-0.635227,-0.96734,0.09145,0.16942,2.32,2.49,2.56,2.96,2.91,2.99,2.84,3.9,2.96,3.94,3.96,3.78,3.9,3.88,3.7,2297,9.570833,62433.001833,-2.565361,956.513733,-195.438843,1.88909936552441,2.44227947501561,2.16819458954989,15.456232,812.394897,155.107574,90.276932,1183.54541,-28.567839,"LATERAL"
69,17,20,33.018,5896.24,-0.374696,0.439682,-0.53733,0.614458,-0.92807,0.32846,-0.03465,5892.98,-0.094965,-0.765586,-0.03644,-0.635242,-0.96566,0.09187,0.16917,2.32,2.49,2.56,2.96,2.91,2.99,2.84,3.9,2.96,3.94,3.96,3.78,3.9,3.88,3.71,2301,9.5875,62433.0185,-2.544904,956.431335,-195.439972,1.88912308605874,2.44247985179756,2.16796717457386,15.450536,812.385681,155.094788,90.304451,1183.502197,-28.624073,"LATERAL"
70,17,20,33.023,5896.26,-0.37452,0.439917,-0.537575,0.614183,-0.92718,0.32833,-0.03387,5893,-0.094918,-0.765519,-0.036402,-0.635332,-0.9684,0.09225,0.16854,2.32,2.49,2.56,2.96,2.91,2.99,2.84,3.9,2.96,3.94,3.96,3.78,3.91,3.88,3.7,2303,9.595833,62433.026833,-2.534172,956.392029,-195.4431,1.88917487038126,2.44258589275494,2.16782172953752,15.451767,812.38739,155.085861,90.330231,1183.484253,-28.662062,"LATERAL"
71,17,20,33.078,5896.28,-0.374539,0.439906,-0.537615,0.614144,-0.92859,0.32893,-0.03774,5893.02,-0.094966,-0.765477,-0.036347,-0.635378,-0.96791,0.09098,0.17011,2.32,2.49,2.56,2.96,2.91,2.99,2.84,3.9,2.96,3.94,3.96,3.79,3.9,3.88,3.71,2316,9.65,62433.081,-2.416137,956.132202,-195.449997,1.88943630288852,2.4432431858562,2.16695794249992,15.469297,812.399841,155.043808,90.522774,1183.351929,-28.879423,"LATERAL"
72,17,20,33.083,5896.3,-0.374125,0.439993,-0.537844,0.614134,-0.92939,0.33018,-0.03673,5893.04,-0.095048,-0.76545,-0.036273,-0.635402,-0.96474,0.08972,0.17214,2.32,2.49,2.56,2.96,2.91,2.99,2.84,3.9,2.96,3.94,3.96,3.79,3.9,3.88,3.7,2317,9.654167,62433.085167,-2.401441,956.114441,-195.451416,1.88944903016483,2.44329563106354,2.16689420537943,15.475031,812.400696,155.03717,90.541283,1183.344727,-28.896082,"LATERAL"
73,17,20,33.088,5896.32,-0.374116,0.440002,-0.537868,0.614112,-0.9296,0.32957,-0.03441,5893.06,-0.095018,-0.76542,-0.036382,-0.635436,-0.96636,0.08956,0.17222,2.32,2.49,2.56,2.96,2.91,2.99,2.84,3.9,2.96,3.94,3.96,3.79,3.91,3.88,3.7,2318,9.658333,62433.089333,-2.388538,956.095947,-195.449936,1.88945810395316,2.44335405303428,2.16682647045669,15.475458,812.402222,155.037872,90.557053,1183.338135,-28.910675,"LATERAL"
74,17,20,33.135,5896.34,-0.374121,0.440003,-0.537903,0.614078,-0.9281,0.3299,-0.03254,5893.08,-0.09506,-0.765413,-0.036332,-0.635442,-0.96784,0.09147,0.17147,2.32,2.49,2.56,2.96,2.91,2.99,2.84,3.89,2.96,3.94,3.96,3.78,3.91,3.88,3.71,2329,9.704167,62433.135167,-2.244472,955.953247,-195.463654,1.88957749735075,2.4437902928745,2.166287517225,15.5312,812.433716,155.006729,90.737282,1183.28479,-29.052217,"LATERAL"
75,17,20,33.14,5896.36,-0.373986,0.440138,-0.538097,0.613893,-0.9277,0.32872,-0.03458,5893.1,-0.094528,-0.765273,-0.036642,-0.635672,-0.96638,0.09004,0.1705,2.32,2.49,2.56,2.96,2.91,2.99,2.84,3.89,2.96,3.94,3.96,3.79,3.91,3.88,3.7,2331,9.7125,62433.1435,-2.219651,955.936401,-195.461258,1.88959650982826,2.44384097156911,2.16622159802795,15.541268,812.448303,155.00087,90.768501,1183.280151,-29.064148,"LATERAL"
76,17,20,33.156,5896.38,-0.373973,0.440141,-0.538125,0.613874,-0.92824,0.32858,-0.03294,5893.12,-0.09452,-0.765309,-0.036625,-0.63563,-0.9669,0.08684,0.16858,2.32,2.49,2.56,2.96,2.91,2.99,2.84,3.9,2.96,3.94,3.96,3.79,3.91,3.88,3.7,2335,9.729167,62433.160167,-2.168858,955.905579,-195.457474,1.88966855031485,2.44394134932574,2.16606897999704,15.569491,812.464966,154.986862,90.839478,1183.268188,-29.098053,"LATERAL"
77,17,20,33.174,5896.4,-0.373957,0.440185,-0.538142,0.613838,-0.92951,0.32936,-0.03469,5893.14,-0.094477,-0.765363,-0.036624,-0.635573,-0.96783,0.08735,0.16799,2.32,2.49,2.56,2.96,2.91,2.99,2.84,3.89,2.96,3.94,3.96,3.79,3.91,3.88,3.7,2339,9.745833,62433.176833,-2.120121,955.88269,-195.467957,1.88969365455655,2.44399862002274,2.16599215246909,15.596276,812.482605,154.980057,90.894493,1183.254272,-29.12883,"LATERAL"
78,17,20,33.183,5896.42,-0.373928,0.44019,-0.538136,0.613858,-0.93004,0.32935,-0.03233,5893.16,-0.094257,-0.765384,-0.036683,-0.635576,-0.97035,0.08773,0.16875,2.32,2.49,2.56,2.96,2.91,2.99,2.84,3.89,2.96,3.94,3.96,3.79,3.9,3.88,3.7,2341,9.754167,62433.185167,-2.094582,955.870972,-195.474487,1.88968815919238,2.44403786885658,2.16595405567844,15.615748,812.480957,154.969254,90.919968,1183.253662,-29.142065,"LATERAL"
79,17,20,33.215,5896.44,-0.373943,0.440165,-0.538151,0.613853,-0.9281,0.32919,-0.03388,5893.18,-0.094117,-0.765463,-0.036713,-0.6355,-0.96859,0.08557,0.16959,2.32,2.49,2.56,2.96,2.91,2.99,2.84,3.89,2.96,3.94,3.96,3.79,3.91,3.88,3.71,2349,9.7875,62433.2185,-2.025216,955.828979,-195.484192,1.88973885357887,2.44415406972911,2.16579831276767,15.678218,812.504395,154.95874,91.005394,1183.238159,-29.186855,"LATERAL"
80,17,20,33.22,5896.46,-0.373897,0.440256,-0.538257,0.613723,-0.93047,0.32968,-0.03343,5893.2,-0.093907,-0.765573,-0.036801,-0.635394,-0.96558,0.08726,0.17188,2.32,2.49,2.56,2.96,2.91,2.99,2.84,3.9,2.96,3.94,3.96,3.79,3.9,3.88,3.7,2350,9.791667,62433.222667,-2.019773,955.822937,-195.4841,1.88977418794093,2.44417274365098,2.16575584173161,15.684505,812.503845,154.956635,91.023506,1183.24231,-29.192347,"LATERAL"
81,17,20,33.279,5896.48,-0.373895,0.440238,-0.538247,0.613745,-0.9284,0.32952,-0.03401,5893.22,-0.093734,-0.76567,-0.036842,-0.6353,-0.96613,0.08881,0.17114,2.32,2.49,2.56,2.96,2.91,2.99,2.84,3.89,2.96,3.94,3.96,3.79,3.91,3.88,3.7,2364,9.85,62433.281,-1.98221,955.821106,-195.48085,1.89004381956947,2.44419556595434,2.16555858292729,15.758892,812.544312,154.952042,91.136398,1183.243286,-29.238697,"LATERAL"
82,17,20,33.285,5896.5,-0.373784,0.440282,-0.538311,0.613725,-0.92861,0.32935,-0.0323,5893.24,-0.09357,-0.765778,-0.036926,-0.635189,-0.96666,0.08869,0.17109,2.32,2.49,2.56,2.96,2.91,2.99,2.84,3.89,2.96,3.94,3.96,3.79,3.9,3.88,3.7,2365,9.854167,62433.285167,-1.980369,955.825378,-195.484161,1.89008446388364,2.44417401305949,2.16555534564496,15.764072,812.546509,154.948746,91.149071,1183.241943,-29.243906,"LATERAL"
83,17,20,33.289,5896.52,-0.373756,0.440272,-0.538293,0.613766,-0.92838,0.32868,-0.03256,5893.26,-0.09331,-0.765859,-0.037016,-0.635125,-0.96903,0.08595,0.16992,2.32,2.49,2.56,2.96,2.91,2.99,2.84,3.89,2.96,3.94,3.96,3.79,3.9,3.88,3.7,2366,9.858333,62433.289333,-1.978209,955.830994,-195.485306,1.89011246271782,2.44415664158523,2.16555579154624,15.769016,812.54895,154.948563,91.158524,1183.242798,-29.246002,"LATERAL"
84,17,20,33.334,5896.54,-0.373737,0.440248,-0.538286,0.6138,-0.92857,0.33147,-0.03291,5893.28,-0.093075,-0.76597,-0.037052,-0.635023,-0.97032,0.08405,0.17228,2.32,2.49,2.56,2.96,2.91,2.99,2.84,3.9,2.96,3.94,3.96,3.79,3.9,3.88,3.7,2377,9.904167,62433.335167,-1.961389,955.896423,-195.512375,1.89040996655355,2.44393093106579,2.16560408156461,15.804384,812.563538,154.930679,91.257713,1183.261719,-29.263758,"LATERAL"
85,17,20,33.339,5896.56,-0.373631,0.440216,-0.538312,0.613865,-0.92819,0.33177,-0.03498,5893.3,-0.092783,-0.766051,-0.037079,-0.634966,-0.96967,0.08716,0.17207,2.32,2.49,2.56,2.96,2.92,2.99,2.84,3.9,2.96,3.94,3.96,3.79,3.9,3.88,3.7,2378,9.908333,62433.339333,-1.960136,955.902466,-195.515488,1.89042879571643,2.44391555636218,2.1656082888855,15.805483,812.566223,154.924255,91.263794,1183.263672,-29.266685,"LATERAL"
86,17,20,33.357,5896.58,-0.373654,0.440165,-0.538316,0.613884,-0.9277,0.3313,-0.03083,5893.32,-0.092584,-0.766164,-0.037105,-0.634857,-0.97145,0.09061,0.17383,2.32,2.49,2.56,2.96,2.92,2.99,2.84,3.9,2.96,3.94,3.96,3.79,3.9,3.88,3.71,2383,9.929167,62433.360167,-1.96402,955.931519,-195.527664,1.8905904304909,2.44379447121707,2.1656328254629,15.814711,812.576294,154.913437,91.30629,1183.271729,-29.271307,"LATERAL"
87,17,20,33.378,5896.6,-0.373601,0.440136,-0.538381,0.613881,-0.92965,0.33092,-0.03327,5893.34,-0.092461,-0.766267,-0.037149,-0.634748,-0.97154,0.08796,0.17399,2.32,2.49,2.56,2.96,2.92,2.99,2.84,3.89,2.96,3.94,3.96,3.79,3.91,3.89,3.7,2388,9.95,62433.381,-1.987031,955.958496,-195.540161,1.89080604369336,2.44367758961072,2.16561813687607,15.824601,812.585388,154.904678,91.344582,1183.277832,-29.286383,"LATERAL"
88,17,20,33.383,5896.62,-0.37364,0.440065,-0.538378,0.61391,-0.92882,0.33105,-0.03303,5893.36,-0.0923,-0.766333,-0.037202,-0.63469,-0.96955,0.08545,0.17468,2.32,2.49,2.56,2.96,2.92,2.99,2.84,3.89,2.96,3.94,3.96,3.79,3.91,3.88,3.7,2389,9.954167,62433.385167,-1.987924,955.964111,-195.541199,1.89083132010395,2.44366517824575,2.16561504071791,15.826687,812.585205,154.903488,91.352531,1183.285278,-29.285112,"LATERAL"
89,17,20,33.434,5896.64,-0.373702,0.439991,-0.538348,0.613951,-0.92812,0.33078,-0.03331,5893.38,-0.092197,-0.766392,-0.037211,-0.634632,-0.96917,0.08658,0.1762,2.32,2.48,2.56,2.96,2.92,2.99,2.84,3.89,2.96,3.94,3.96,3.79,3.9,3.88,3.7,2401,10.004167,62433.435167,-2.036679,955.993652,-195.556168,1.8913086394363,2.44347217527706,2.16551247744236,15.826438,812.597107,154.882797,91.437164,1183.275513,-29.327116,"LATERAL"
90,17,20,33.439,5896.66,-0.373626,0.439955,-0.538381,0.613994,-0.92759,0.33273,-0.03395,5893.4,-0.092131,-0.76648,-0.037326,-0.634529,-0.96859,0.08716,0.17615,2.32,2.48,2.56,2.96,2.92,2.99,2.84,3.89,2.96,3.94,3.96,3.79,3.9,3.88,3.7,2402,10.008333,62433.439333,-2.037411,955.994019,-195.55629,1.89130603593906,2.44348092533464,2.16550487079576,15.822739,812.598145,154.880829,91.433456,1183.272095,-29.333096,"LATERAL"
91,17,20,33.457,5896.68,-0.373677,0.439899,-0.538348,0.614032,-0.92852,0.33226,-0.03364,5893.42,-0.092061,-0.766517,-0.03727,-0.634498,-0.9695,0.08599,0.17627,2.32,2.48,2.56,2.96,2.92,2.99,2.84,3.89,2.96,3.94,3.97,3.79,3.91,3.88,3.7,2407,10.029167,62433.460167,-2.064588,955.987366,-195.564682,1.89144367731159,2.44344305178902,2.16545635589033,15.819827,812.602661,154.886276,91.447479,1183.26416,-29.349066,"LATERAL"
92,17,20,33.462,5896.7,-0.37367,0.439861,-0.53837,0.614045,-0.92794,0.33173,-0.03343,5893.44,-0.092037,-0.766543,-0.03725,-0.634471,-0.96885,0.08768,0.17798,2.32,2.48,2.56,2.96,2.92,2.99,2.84,3.9,2.96,3.94,3.96,3.79,3.9,3.88,3.7,2408,10.033333,62433.464333,-2.070602,955.983154,-195.565414,1.89146468140694,2.44344967112382,2.16543579308627,15.81883,812.60553,154.884689,91.447739,1183.262085,-29.354212,"LATERAL"
93,17,20,33.518,5896.72,-0.373733,0.439803,-0.538335,0.614078,-0.92683,0.33132,-0.03451,5893.46,-0.092017,-0.766581,-0.037411,-0.634419,-0.9679,0.0869,0.17843,2.32,2.48,2.56,2.96,2.92,2.99,2.84,3.9,2.96,3.94,3.97,3.79,3.9,3.88,3.7,2421,10.0875,62433.5185,-2.101401,955.921875,-195.54187,1.89170069257552,2.44355147676102,2.16517555716958,15.798241,812.604065,154.885727,91.488113,1183.231689,-29.386248,"LATERAL"
94,17,20,33.523,5896.74,-0.373792,0.43974,-0.538312,0.614108,-0.92815,0.33037,-0.03383,5893.48,-0.092079,-0.766599,-0.037375,-0.63439,-0.97001,0.08611,0.17747,2.32,2.48,2.56,2.96,2.92,2.99,2.84,3.89,2.96,3.94,3.97,3.79,3.91,3.88,3.7,2423,10.095833,62433.526833,-2.102787,955.914612,-195.530258,1.89171221355504,2.44353708339746,2.1651833997356,15.782865,812.600159,154.894455,91.490875,1183.223877,-29.371103,"LATERAL"
95,17,20,33.528,5896.76,-0.373789,0.439731,-0.538337,0.614095,-0.9273,0.33151,-0.03521,5893.5,-0.092043,-0.766641,-0.037465,-0.634339,-0.96952,0.08524,0.17606,2.32,2.48,2.56,2.96,2.92,2.99,2.84,3.89,2.96,3.94,3.97,3.79,3.9,3.88,3.7,2424,10.1,62433.531,-2.104563,955.913452,-195.524948,1.89174400143122,2.44352868411022,2.16517180421154,15.781442,812.594666,154.895248,91.498734,1183.222778,-29.367428,"LATERAL"
96,17,20,33.554,5896.78,-0.373821,0.439705,-0.538286,0.614138,-0.92801,0.32971,-0.03683,5893.52,-0.0921,-0.766671,-0.037408,-0.634298,-0.96807,0.08597,0.17538,2.32,2.48,2.56,2.96,2.92,2.99,2.84,3.89,2.96,3.94,3.97,3.79,3.9,3.88,3.7,2430,10.125,62433.556,-2.094074,955.907837,-195.498016,1.8918068822694,2.4435695184818,2.16508788796289,15.736136,812.564148,154.907913,91.525078,1183.220459,-29.364408,"LATERAL"
97,17,20,33.561,5896.8,-0.373876,0.439711,-0.538266,0.614118,-0.92766,0.32971,-0.03603,5893.54,-0.092182,-0.766714,-0.037367,-0.634237,-0.9688,0.08585,0.17512,2.32,2.48,2.56,2.96,2.92,2.99,2.84,3.89,2.97,3.94,3.96,3.79,3.9,3.88,3.7,2432,10.133333,62433.564333,-2.085078,955.915039,-195.49263,1.89184834624307,2.44352994412133,2.1651031289172,15.716676,812.55603,154.914139,91.546242,1183.221313,-29.354399,"LATERAL"
98,17,20,33.595,5896.82,-0.373909,0.43968,-0.538195,0.614182,-0.92787,0.32964,-0.03721,5893.56,-0.092222,-0.766783,-0.037422,-0.634144,-0.96659,0.08568,0.17684,2.32,2.48,2.56,2.96,2.92,2.99,2.84,3.89,2.96,3.94,3.96,3.79,3.91,3.88,3.7,2440,10.166667,62433.597667,-2.086731,955.948975,-195.477112,1.89195809150495,2.44347182735151,2.16509396682577,15.662605,812.550476,154.897293,91.575829,1183.244995,-29.340527,"LATERAL"
99,17,20,33.6,5896.84,-0.373927,0.43966,-0.538138,0.614235,-0.92786,0.32955,-0.03545,5893.58,-0.092322,-0.766833,-0.037395,-0.63407,-0.96606,0.08589,0.17815,2.32,2.48,2.56,2.96,2.92,2.99,2.84,3.89,2.97,3.94,3.96,3.79,3.91,3.88,3.7,2441,10.170833,62433.601833,-2.094174,955.948242,-195.478241,1.89195365731431,2.4434927981498,2.16507457150535,15.659299,812.553284,154.898651,91.566345,1183.246338,-29.34783,"LATERAL"
100,17,20,33.658,5896.86,-0.373999,0.439652,-0.538103,0.614228,-0.92822,0.32882,-0.03599,5893.6,-0.092413,-0.766886,-0.037476,-0.633988,-0.9657,0.08508,0.17683,2.32,2.48,2.56,2.96,2.92,2.99,2.84,3.89,2.96,3.94,3.96,3.79,3.91,3.88,3.7,2455,10.229167,62433.660167,-2.211664,955.645264,-195.47049,1.89142154760691,2.44476669098236,2.16406567202373,15.697626,812.653809,154.951218,91.298996,1183.186035,-29.588255,"LATERAL"
101,17,20,33.664,5896.88,-0.374024,0.43963,-0.53807,0.614257,-0.92766,0.32924,-0.03575,5893.62,-0.092579,-0.766919,-0.037513,-0.633922,-0.96551,0.0851,0.17571,2.32,2.48,2.56,2.96,2.92,2.99,2.84,3.89,2.96,3.94,3.97,3.79,3.9,3.88,3.7,2456,10.233333,62433.664333,-2.214535,955.610779,-195.463898,1.89135547509148,2.44488799717444,2.16397950107105,15.70291,812.652405,154.956818,91.27623,1183.171509,-29.60515,"LATERAL"
102,17,20,33.668,5896.9,-0.374074,0.439637,-0.538061,0.61423,-0.92848,0.32947,-0.03517,5893.64,-0.09271,-0.766974,-0.037539,-0.633835,-0.9653,0.08575,0.17557,2.32,2.48,2.56,2.96,2.92,2.99,2.84,3.9,2.96,3.94,3.96,3.79,3.9,3.88,3.7,2457,10.2375,62433.6685,-2.220598,955.573181,-195.458176,1.89133663431605,2.44501389338823,2.16385797607259,15.704751,812.649475,154.963531,91.263992,1183.155762,-29.630869,"LATERAL"
103,17,20,33.713,5896.92,-0.374104,0.439604,-0.538014,0.614276,-0.92805,0.33041,-0.03585,5893.66,-0.092705,-0.766994,-0.037619,-0.633807,-0.9673,0.08421,0.17648,2.32,2.48,2.56,2.96,2.92,2.99,2.84,3.89,2.96,3.94,3.96,3.79,3.91,3.88,3.7,2468,10.283333,62433.714333,-2.278291,955.161743,-195.350525,1.8912205102445,2.44614350785145,2.16273312404175,15.725386,812.625,155.06897,91.174606,1182.96167,-29.798292,"LATERAL"
104,17,20,33.718,5896.94,-0.374131,0.439582,-0.537953,0.614329,-0.9292,0.32968,-0.03636,5893.68,-0.092808,-0.767013,-0.03765,-0.633766,-0.96742,0.08554,0.17554,2.32,2.48,2.56,2.96,2.92,2.99,2.84,3.89,2.96,3.93,3.96,3.79,3.9,3.88,3.7,2469,10.2875,62433.7185,-2.283809,955.130798,-195.340073,1.89125453890935,2.44622169987676,2.16262807951745,15.728118,812.626953,155.078827,91.179909,1182.948608,-29.811512,"LATERAL"
105,17,20,33.736,5896.96,-0.374128,0.439613,-0.537947,0.614314,-0.92679,0.33003,-0.03653,5893.7,-0.092778,-0.767019,-0.037753,-0.633758,-0.96552,0.0851,0.17695,2.32,2.48,2.56,2.96,2.92,2.99,2.84,3.9,2.96,3.93,3.96,3.79,3.9,3.88,3.7,2474,10.308333,62433.739333,-2.311524,955.01123,-195.274612,1.89152254768254,2.44644526502521,2.16221737132092,15.718157,812.625244,155.122025,91.228836,1182.87439,-29.845125,"LATERAL"
106,17,20,33.754,5896.98,-0.37416,0.439584,-0.537932,0.614329,-0.92766,0.33105,-0.03578,5893.72,-0.092809,-0.767088,-0.037755,-0.63367,-0.96528,0.0806,0.17597,2.32,2.48,2.56,2.96,2.92,2.99,2.84,3.89,2.96,3.93,3.97,3.79,3.91,3.88,3.7,2478,10.325,62433.756,-2.317328,954.954102,-195.232498,1.89170512173297,2.44652465708613,2.16201493926844,15.691627,812.618042,155.14444,91.273407,1182.829834,-29.854702,"LATERAL"
107,17,20,33.759,5897,-0.374072,0.439563,-0.537946,0.614385,-0.92807,0.33146,-0.03638,5893.74,-0.092805,-0.767164,-0.037724,-0.63358,-0.97144,0.08198,0.17484,2.32,2.48,2.56,2.96,2.92,2.99,2.84,3.9,2.96,3.93,3.96,3.79,3.9,3.88,3.7,2479,10.329167,62433.760167,-2.319409,954.945923,-195.227615,1.8917568640893,2.44651726130661,2.16198932950141,15.694126,812.614502,155.147461,91.287926,1182.825195,-29.852539,"LATERAL"
108,17,20,33.794,5897.02,-0.374093,0.439544,-0.537931,0.614398,-0.92744,0.33062,-0.03652,5893.76,-0.092662,-0.767136,-0.037789,-0.633632,-0.97224,0.0862,0.17364,2.32,2.48,2.56,2.96,2.92,2.99,2.84,3.89,2.96,3.93,3.97,3.79,3.91,3.88,3.7,2488,10.366667,62433.797667,-2.139712,954.893738,-195.249481,1.89154024932773,2.44662141541149,2.16201871822458,15.600121,812.570862,155.095474,91.404945,1182.788696,-29.870144,"LATERAL"
109,17,20,33.799,5897.04,-0.374118,0.439518,-0.537914,0.614417,-0.92814,0.32922,-0.03624,5893.78,-0.092562,-0.76717,-0.037772,-0.633605,-0.97389,0.08575,0.17772,2.32,2.48,2.56,2.96,2.92,2.99,2.84,3.89,2.97,3.93,3.96,3.79,3.9,3.88,3.7,2489,10.370833,62433.801833,-2.108387,954.890381,-195.26062,1.89147419952278,2.44662334285276,2.16205936856775,15.586013,812.57196,155.082581,91.41935,1182.789795,-29.868301,"LATERAL"
110,17,20,33.855,5897.06,-0.374089,0.439518,-0.537913,0.614435,-0.9293,0.32985,-0.03795,5893.8,-0.092409,-0.767273,-0.037762,-0.633504,-0.96926,0.08683,0.18134,2.32,2.48,2.56,2.96,2.92,2.99,2.84,3.89,2.96,3.93,3.96,3.79,3.9,3.88,3.7,2502,10.425,62433.856,-1.552676,954.823975,-195.478516,1.89010518650595,2.44672760907291,2.16283161483784,15.379288,812.466858,154.971268,91.592552,1182.750732,-29.890535,"LATERAL"
111,17,20,33.86,5897.08,-0.374045,0.439554,-0.537855,0.614487,-0.92484,0.32828,-0.03973,5893.82,-0.092292,-0.767375,-0.037729,-0.633399,-0.95569,0.09038,0.18431,2.32,2.48,2.56,2.96,2.92,2.99,2.84,3.89,2.96,3.93,3.97,3.79,3.9,3.88,3.7,2503,10.429167,62433.860167,-1.520966,954.819702,-195.49379,1.89004469679526,2.44672644683857,2.16287177767324,15.368174,812.459229,154.964752,91.606812,1182.745239,-29.896646,"LATERAL"
112,17,20,33.878,5897.1,-0.374035,0.439535,-0.537777,0.614575,-0.92371,0.33008,-0.03856,5893.84,-0.092302,-0.767471,-0.037748,-0.63328,-0.95529,0.08568,0.17559,2.32,2.48,2.56,2.96,2.92,2.99,2.84,3.89,2.97,3.93,3.97,3.79,3.9,3.88,3.7,2508,10.45,62433.881,-1.401485,954.816467,-195.566422,1.88977611949531,2.44663919152074,2.16313718519648,15.297355,812.432556,154.942795,91.652084,1182.729004,-29.901335,"LATERAL"
113,17,20,33.884,5897.12,-0.374002,0.43958,-0.537735,0.6146,-0.92972,0.32825,-0.03748,5893.86,-0.091757,-0.767306,-0.038031,-0.633542,-0.96031,0.08146,0.17111,2.32,2.48,2.56,2.96,2.92,2.99,2.84,3.89,2.97,3.93,3.97,3.79,3.9,3.88,3.69,2509,10.454167,62433.885167,-1.385719,954.819946,-195.579498,1.88974532097332,2.4466035211421,2.16319486016166,15.286055,812.429565,154.936142,91.659622,1182.726807,-29.899412,"LATERAL"
114,17,20,33.938,5897.14,-0.374011,0.439582,-0.537682,0.61464,-0.93197,0.33008,-0.03151,5893.88,-0.091695,-0.767232,-0.038077,-0.633638,-0.96089,0.07771,0.17268,2.32,2.48,2.56,2.96,2.92,2.99,2.84,3.89,2.97,3.93,3.97,3.79,3.9,3.88,3.69,2522,10.508333,62433.939333,-1.418482,955.03064,-195.569473,1.88978939712247,2.44585035783691,2.16396612064869,15.235607,812.385864,154.934494,91.642067,1182.801147,-29.694605,"LATERAL"
115,17,20,33.945,5897.16,-0.373911,0.439599,-0.53765,0.614716,-0.93508,0.33681,-0.03191,5893.9,-0.091571,-0.767128,-0.038224,-0.633773,-0.96169,0.07905,0.17669,2.32,2.48,2.56,2.96,2.92,2.99,2.84,3.89,2.97,3.93,3.96,3.79,3.9,3.88,3.69,2524,10.516667,62433.947667,-1.457119,955.092468,-195.546112,1.8899140085738,2.44563724889129,2.16411225163233,15.245698,812.379639,154.944321,91.642014,1182.830933,-29.629101,"LATERAL"
116,17,20,33.959,5897.18,-0.373813,0.439642,-0.537531,0.614849,-0.9337,0.33801,-0.03193,5893.92,-0.091476,-0.76706,-0.03828,-0.633866,-0.96654,0.08247,0.17906,2.32,2.48,2.56,2.96,2.92,2.99,2.84,3.89,2.97,3.93,3.97,3.79,3.9,3.88,3.69,2527,10.529167,62433.960167,-1.531271,955.204834,-195.506454,1.89015815279094,2.44528362169114,2.16433065535838,15.260597,812.377747,154.956985,91.63559,1182.873413,-29.537603,"LATERAL"
117,17,20,33.964,5897.2,-0.373653,0.439706,-0.537465,0.614958,-0.92261,0.3317,-0.03596,5893.94,-0.091398,-0.767044,-0.038358,-0.633892,-0.97135,0.08398,0.18283,2.32,2.48,2.56,2.96,2.92,2.99,2.85,3.89,2.96,3.93,3.96,3.79,3.9,3.88,3.69,2528,10.533333,62433.964333,-1.560656,955.242676,-195.490189,1.89027491297567,2.44516425816025,2.16438226387572,15.267447,812.369446,154.959396,91.638557,1182.887207,-29.509611,"LATERAL"
118,17,20,33.995,5897.22,-0.373588,0.439754,-0.537425,0.614998,-0.91875,0.3298,-0.03409,5893.96,-0.091295,-0.767134,-0.038589,-0.633784,-0.97675,0.08275,0.18136,2.32,2.48,2.55,2.96,2.92,2.99,2.84,3.89,2.97,3.93,3.97,3.79,3.91,3.88,3.7,2536,10.566667,62433.997667,-1.843027,955.595642,-195.386169,1.89145801000181,2.44393412326963,2.1649259789098,15.333656,812.367554,154.983673,91.690498,1183.008423,-29.269981,"LATERAL"
119,17,20,34,5897.24,-0.37356,0.439775,-0.537397,0.615024,-0.92191,0.3318,-0.03711,5893.98,-0.091275,-0.767282,-0.038763,-0.633597,-0.97726,0.08503,0.17472,2.32,2.48,2.55,2.96,2.92,2.99,2.84,3.89,2.97,3.93,3.96,3.79,3.9,3.88,3.69,2537,10.570833,62434.001833,-1.880671,955.643982,-195.374496,1.89161025992814,2.44374337498455,2.16503023248193,15.338758,812.369019,154.986649,91.69442,1183.017212,-29.234999,"LATERAL"
120,17,20,34.034,5897.26,-0.373493,0.439804,-0.537401,0.615041,-0.92882,0.33269,-0.03795,5894,-0.091117,-0.767353,-0.038745,-0.633535,-0.97668,0.08487,0.16493,2.32,2.48,2.56,2.96,2.92,2.99,2.84,3.89,2.97,3.93,3.97,3.79,3.9,3.88,3.7,2545,10.604167,62434.035167,-2.12953,955.97522,-195.291077,1.89297995815989,2.44249404080662,2.16547123619679,15.38852,812.384216,155.015564,91.82621,1183.098022,-29.051968,"LATERAL"
121,17,20,34.039,5897.28,-0.373514,0.439806,-0.537358,0.615064,-0.92953,0.33022,-0.03702,5894.02,-0.090926,-0.767476,-0.038656,-0.633418,-0.97273,0.08418,0.1627,2.32,2.48,2.55,2.96,2.93,2.99,2.84,3.89,2.97,3.93,3.97,3.79,3.9,3.88,3.69,2546,10.608333,62434.039333,-2.15225,956.011902,-195.28949,1.89313481494996,2.44233779192727,2.16553684074851,15.394126,812.386658,155.017303,91.847527,1183.105957,-29.033457,"LATERAL"
122,17,20,34.096,5897.3,-0.373636,0.43978,-0.537348,0.615018,-0.92742,0.32581,-0.03892,5894.04,-0.0906,-0.767547,-0.03839,-0.633395,-0.96845,0.07938,0.16879,2.32,2.48,2.55,2.96,2.93,2.99,2.84,3.89,2.97,3.93,3.97,3.79,3.9,3.88,3.7,2560,10.666667,62434.097667,-2.193383,956.339172,-195.33432,1.89470867933887,2.44086497720709,2.16607929579449,15.433046,812.41449,155.011032,92.252052,1183.158447,-28.940029,"LATERAL"
123,17,20,34.101,5897.32,-0.373736,0.439702,-0.53735,0.615011,-0.93012,0.32171,-0.03687,5894.06,-0.090053,-0.767577,-0.037974,-0.633462,-0.96783,0.08205,0.1778,2.32,2.48,2.55,2.96,2.93,2.99,2.84,3.89,2.97,3.93,3.96,3.79,3.9,3.88,3.7,2561,10.670833,62434.101833,-2.179047,956.341736,-195.340271,1.89476242559352,2.44082484779925,2.16608696341485,15.433332,812.418579,155.010086,92.282722,1183.15625,-28.941956,"LATERAL"
124,17,20,34.117,5897.34,-0.3739,0.439592,-0.537417,0.614931,-0.92908,0.32291,-0.03561,5894.08,-0.089455,-0.767642,-0.037499,-0.633497,-0.96694,0.08789,0.18565,2.32,2.48,2.56,2.96,2.93,2.99,2.84,3.89,2.97,3.93,3.97,3.79,3.9,3.88,3.7,2565,10.6875,62434.1185,-2.100739,956.358459,-195.369232,1.89496331772688,2.4406803191211,2.16610978116675,15.44015,812.423157,155.001648,92.417213,1183.144531,-28.965887,"LATERAL"
125,17,20,34.122,5897.36,-0.374138,0.439466,-0.537595,0.614722,-0.93016,0.32558,-0.03915,5894.1,-0.08905,-0.76775,-0.037144,-0.633444,-0.96814,0.09072,0.19144,2.32,2.48,2.55,2.96,2.93,2.99,2.84,3.89,2.97,3.93,3.96,3.79,3.9,3.88,3.7,2566,10.691667,62434.122667,-2.077487,956.356567,-195.378815,1.89495358292329,2.44067413473794,2.1661226764976,15.441776,812.427063,155.000977,92.437584,1183.141113,-28.972553,"LATERAL"
126,17,20,34.179,5897.38,-0.37433,0.439355,-0.537777,0.614524,-0.92611,0.32886,-0.03582,5894.12,-0.088778,-0.767786,-0.03679,-0.633459,-0.97332,0.08639,0.1893,2.32,2.48,2.55,2.96,2.93,2.99,2.84,3.89,2.97,3.93,3.97,3.79,3.9,3.88,3.7,2580,10.75,62434.181,-1.607627,956.232605,-195.460587,1.89473442221921,2.44085179858155,2.16607655503961,15.400817,812.467712,155.017365,92.841728,1183.041382,-29.072821,"LATERAL"
127,17,20,34.184,5897.4,-0.374481,0.439283,-0.537985,0.614302,-0.92685,0.33086,-0.03589,5894.14,-0.08862,-0.767761,-0.03648,-0.633529,-0.97888,0.08259,0.1913,2.32,2.48,2.56,2.96,2.93,2.99,2.84,3.9,2.97,3.93,3.97,3.79,3.9,3.88,3.69,2581,10.754167,62434.185167,-1.569675,956.217163,-195.457077,1.89471249832283,2.44088019399019,2.16606066108502,15.399112,812.466492,155.020981,92.873665,1183.031738,-29.072948,"LATERAL"
128,17,20,34.189,5897.42,-0.374654,0.439223,-0.538132,0.614111,-0.92685,0.33332,-0.03421,5894.16,-0.088601,-0.767756,-0.036346,-0.633545,-0.97726,0.08268,0.19127,2.32,2.47,2.55,2.96,2.93,2.99,2.84,3.89,2.97,3.93,3.97,3.79,3.9,3.88,3.7,2582,10.758333,62434.189333,-1.532191,956.201538,-195.447617,1.894710904173,2.44094087651517,2.16599728042658,15.391952,812.46936,155.03009,92.911407,1183.029419,-29.077816,"LATERAL"
129,17,20,34.233,5897.44,-0.374781,0.439176,-0.538231,0.613979,-0.9296,0.33142,-0.03331,5894.18,-0.088667,-0.767692,-0.036186,-0.633623,-0.97372,0.08465,0.19048,2.32,2.47,2.55,2.96,2.93,2.99,2.84,3.89,2.97,3.93,3.96,3.79,3.9,3.88,3.7,2593,10.804167,62434.235167,-1.081015,956.041321,-195.361786,1.89400109920675,2.44147645688753,2.16588966077194,15.330997,812.449341,155.087738,93.162506,1182.970703,-29.019108,"LATERAL"
130,17,20,34.238,5897.46,-0.374695,0.439285,-0.5384,0.613806,-0.92768,0.33112,-0.03141,5894.2,-0.08898,-0.767715,-0.036166,-0.633552,-0.96776,0.0867,0.18769,2.32,2.47,2.55,2.95,2.93,2.99,2.84,3.89,2.98,3.94,3.96,3.79,3.9,3.88,3.7,2594,10.808333,62434.239333,-1.030666,956.025818,-195.356445,1.89386766201628,2.44154861205286,2.16589962475801,15.322687,812.44696,155.092117,93.176323,1182.971436,-29.009529,"LATERAL"
131,17,20,34.258,5897.48,-0.374668,0.439351,-0.538345,0.613824,-0.92916,0.33479,-0.0319,5894.22,-0.089415,-0.767736,-0.036138,-0.633467,-0.96258,0.08735,0.18363,2.32,2.47,2.55,2.96,2.93,2.99,2.84,3.89,2.98,3.94,3.96,3.79,3.9,3.88,3.7,2599,10.829167,62434.260167,-0.757445,955.938232,-195.332352,1.89305484642844,2.4419678059466,2.16598127117809,15.261416,812.432434,155.121796,93.22551,1182.975342,-28.957039,"LATERAL"
132,17,20,34.263,5897.5,-0.374522,0.439517,-0.538342,0.613796,-0.92777,0.33472,-0.03071,5894.24,-0.089983,-0.767813,-0.036162,-0.633292,-0.96179,0.08397,0.17843,2.32,2.47,2.55,2.95,2.93,2.99,2.84,3.89,2.98,3.94,3.96,3.79,3.91,3.88,3.69,2600,10.833333,62434.264333,-0.698381,955.922852,-195.330322,1.8928618348469,2.44205203137043,2.16601675350029,15.248718,812.427368,155.126068,93.23101,1182.977905,-28.944935,"LATERAL"
133,17,20,34.293,5897.52,-0.374442,0.439645,-0.538223,0.613858,-0.9274,0.33296,-0.03144,5894.26,-0.090551,-0.767929,-0.036159,-0.633071,-0.96036,0.08238,0.17242,2.32,2.47,2.55,2.96,2.93,2.99,2.84,3.89,2.98,3.94,3.97,3.79,3.9,3.88,3.69,2607,10.8625,62434.2935,-0.306455,955.817078,-195.294937,1.89146409071608,2.44255335988481,2.16638704090138,15.164789,812.384094,155.172287,93.237183,1182.986816,-28.804705,"LATERAL"
134,17,20,34.298,5897.54,-0.374336,0.439806,-0.538053,0.613956,-0.92876,0.33175,-0.03271,5894.28,-0.091107,-0.768084,-0.036126,-0.632805,-0.96151,0.08027,0.1661,2.32,2.47,2.55,2.95,2.93,2.99,2.84,3.89,2.99,3.93,3.96,3.79,3.9,3.88,3.7,2609,10.870833,62434.301833,-0.207348,955.788757,-195.274887,1.89106281557515,2.44269020480338,2.16650022894999,15.145167,812.365845,155.189499,93.224617,1182.987915,-28.754438,"LATERAL"
135,17,20,34.353,5897.56,-0.374245,0.439973,-0.537906,0.614021,-0.92939,0.32926,-0.03376,5894.3,-0.091533,-0.76816,-0.036037,-0.632656,-0.96212,0.08186,0.16612,2.32,2.47,2.55,2.95,2.93,2.99,2.84,3.89,2.99,3.94,3.97,3.79,3.9,3.88,3.7,2622,10.925,62434.356,0.181374,955.703125,-195.02002,1.88932541131806,2.44351878062161,2.1667368328455,15.069019,812.253296,155.314758,93.13163,1183.07959,-28.427402,"LATERAL"
136,17,20,34.357,5897.58,-0.37418,0.440095,-0.537737,0.614122,-0.92896,0.33041,-0.03428,5894.32,-0.091947,-0.768269,-0.035946,-0.632468,-0.95837,0.08217,0.16886,2.32,2.47,2.55,2.95,2.93,2.99,2.84,3.89,2.99,3.94,3.97,3.79,3.9,3.88,3.7,2623,10.929167,62434.360167,0.191307,955.709045,-194.991119,1.88925229970528,2.44356245687304,2.16673734240832,15.064975,812.245361,155.326874,93.119171,1183.089478,-28.401573,"LATERAL"
137,17,20,34.378,5897.6,-0.374169,0.440211,-0.537586,0.614177,-0.92929,0.32928,-0.03563,5894.34,-0.092259,-0.768394,-0.035849,-0.632277,-0.95984,0.08261,0.16994,2.32,2.47,2.56,2.95,2.93,2.99,2.84,3.89,2.99,3.93,3.97,3.79,3.9,3.88,3.7,2628,10.95,62434.381,0.182633,955.748474,-194.84613,1.88916813264686,2.44370505984705,2.16664006019505,15.056094,812.212891,155.376556,93.082741,1183.14624,-28.287708,"LATERAL"
138,17,20,34.383,5897.62,-0.37418,0.440251,-0.537469,0.614244,-0.92871,0.3268,-0.03446,5894.36,-0.092373,-0.768471,-0.035767,-0.632172,-0.96015,0.07961,0.17017,2.32,2.47,2.55,2.95,2.93,2.99,2.84,3.89,2.99,3.94,3.97,3.79,3.9,3.88,3.7,2629,10.954167,62434.385167,0.176761,955.76178,-194.818024,1.88918971355897,2.44372460659965,2.16660552774209,15.052903,812.209167,155.388306,93.081429,1183.159546,-28.270815,"LATERAL"
139,17,20,34.435,5897.64,-0.374227,0.440269,-0.537363,0.614296,-0.92787,0.32799,-0.03608,5894.38,-0.092489,-0.768594,-0.035659,-0.632011,-0.96436,0.08231,0.1751,2.32,2.47,2.55,2.95,2.93,2.99,2.84,3.89,2.99,3.93,3.97,3.79,3.9,3.88,3.7,2641,11.004167,62434.435167,0.031774,955.940613,-194.617966,1.89002459175244,2.44349830059245,2.16631039686742,14.968196,812.124878,155.445908,93.164711,1183.278076,-28.155811,"LATERAL"
140,17,20,34.44,5897.66,-0.374163,0.440342,-0.537407,0.614243,-0.92913,0.32914,-0.03509,5894.4,-0.092304,-0.768675,-0.03567,-0.631939,-0.96566,0.08036,0.18011,2.32,2.47,2.55,2.95,2.93,2.99,2.84,3.89,2.99,3.94,3.97,3.79,3.9,3.88,3.7,2643,11.0125,62434.4435,0.024419,955.964661,-194.616898,1.89015778668445,2.44345907435157,2.16626650638709,14.940158,812.111389,155.437485,93.193649,1183.291626,-28.167734,"LATERAL"
141,17,20,34.457,5897.68,-0.374248,0.440297,-0.537359,0.614266,-0.92882,0.32983,-0.03474,5894.42,-0.092184,-0.768789,-0.035583,-0.631822,-0.97027,0.08041,0.18044,2.32,2.47,2.55,2.95,2.93,2.99,2.84,3.89,2.99,3.94,3.97,3.79,3.9,3.88,3.7,2647,11.029167,62434.460167,0.013103,955.999451,-194.622314,1.89047300888802,2.44336336914169,2.16616555338783,14.890657,812.103699,155.412613,93.272873,1183.312378,-28.194864,"LATERAL"
142,17,20,34.462,5897.7,-0.374271,0.440254,-0.537387,0.614258,-0.92784,0.32903,-0.03774,5894.44,-0.091984,-0.76893,-0.035545,-0.631682,-0.9717,0.08283,0.17997,2.32,2.47,2.55,2.95,2.93,2.99,2.84,3.9,2.99,3.94,3.97,3.79,3.9,3.88,3.7,2648,11.033333,62434.464333,0.01459,956.004639,-194.62677,1.89052569320666,2.44335552228922,2.16614002145555,14.880864,812.10376,155.40773,93.290092,1183.318237,-28.204006,"LATERAL"
143,17,20,34.518,5897.72,-0.374381,0.440155,-0.537383,0.614265,-0.92697,0.33015,-0.03639,5894.46,-0.091591,-0.769033,-0.035544,-0.631613,-0.97182,0.0813,0.17603,2.32,2.47,2.55,2.95,2.93,2.99,2.84,3.9,2.99,3.93,3.97,3.79,3.9,3.88,3.7,2661,11.0875,62434.5185,0.127195,955.832764,-194.777908,1.89070239342527,2.44408914033279,2.16524819203709,14.75238,812.127258,155.291183,93.458885,1183.30188,-28.562925,"LATERAL"
144,17,20,34.523,5897.74,-0.374555,0.44004,-0.537378,0.614246,-0.92704,0.33105,-0.03795,5894.48,-0.091099,-0.769109,-0.035407,-0.6316,-0.97337,0.08285,0.17461,2.32,2.47,2.56,2.95,2.93,2.99,2.84,3.89,2.99,3.94,3.97,3.79,3.9,3.88,3.7,2663,11.095833,62434.526833,0.15782,955.771118,-194.801117,1.89070579884739,2.44430404305971,2.16501797147592,14.736348,812.133484,155.269897,93.491043,1183.282593,-28.641722,"LATERAL"
145,17,20,34.528,5897.76,-0.374681,0.439921,-0.537395,0.61424,-0.92751,0.33053,-0.03742,5894.5,-0.090361,-0.769117,-0.03513,-0.631711,-0.97161,0.08371,0.1774,2.32,2.47,2.56,2.95,2.93,2.99,2.84,3.9,2.99,3.94,3.97,3.79,3.9,3.88,3.7,2664,11.1,62434.531,0.172142,955.739441,-194.812149,1.89071843133254,2.44442190257207,2.16488477223446,14.728972,812.133057,155.256241,93.510902,1183.278198,-28.68199,"LATERAL"
146,17,20,34.553,5897.78,-0.374811,0.439846,-0.537365,0.61424,-0.92664,0.32797,-0.03718,5894.52,-0.089511,-0.769048,-0.034706,-0.63194,-0.96976,0.08439,0.18401,2.32,2.47,2.55,2.95,2.93,2.99,2.84,3.89,2.99,3.94,3.97,3.79,3.9,3.88,3.7,2670,11.125,62434.556,0.288015,955.515503,-194.912369,1.89064428816116,2.44517298164415,2.16413531610809,14.720164,812.13562,155.205078,93.612419,1183.213257,-28.95496,"LATERAL"
147,17,20,34.576,5897.8,-0.374965,0.439765,-0.537328,0.614237,-0.92885,0.3269,-0.03936,5894.54,-0.088624,-0.768953,-0.034239,-0.632206,-0.96753,0.08386,0.18858,2.32,2.47,2.55,2.95,2.93,2.99,2.84,3.9,2.99,3.94,3.97,3.79,3.9,3.88,3.7,2675,11.145833,62434.576833,0.390995,955.323792,-195.027084,1.8905636121949,2.44583353119475,2.16348595234317,14.732025,812.146729,155.186768,93.688049,1183.135986,-29.237713,"LATERAL"
148,17,20,34.581,5897.82,-0.375074,0.439699,-0.537314,0.61423,-0.92789,0.3271,-0.03852,5894.56,-0.087827,-0.768873,-0.033868,-0.632435,-0.96899,0.085,0.19395,2.32,2.47,2.55,2.95,2.93,2.99,2.84,3.9,2.99,3.94,3.97,3.79,3.9,3.88,3.7,2676,11.15,62434.581,0.407731,955.282837,-195.049255,1.89057334347562,2.44597478055883,2.16332969016048,14.734028,812.154297,155.183807,93.706047,1183.118286,-29.300983,"LATERAL"
149,17,20,34.613,5897.84,-0.375208,0.439655,-0.537313,0.61418,-0.92576,0.32816,-0.0369,5894.58,-0.087216,-0.768795,-0.033598,-0.632628,-0.9726,0.0874,0.19824,2.32,2.47,2.55,2.95,2.93,2.99,2.84,3.9,2.99,3.94,3.96,3.79,3.9,3.88,3.7,2684,11.183333,62434.614333,0.500099,954.929016,-195.203308,1.89060238052603,2.44701837167037,2.1622024369781,14.74582,812.222229,155.145752,93.806419,1182.962402,-29.732983,"LATERAL"
150,17,20,34.639,5897.86,-0.375252,0.43968,-0.537383,0.614074,-0.92568,0.32931,-0.03549,5894.6,-0.086909,-0.768794,-0.033512,-0.632676,-0.9676,0.09042,0.1976,2.32,2.47,2.55,2.95,2.93,2.99,2.84,3.89,2.99,3.94,3.97,3.79,3.9,3.88,3.7,2690,11.208333,62434.639333,0.495046,954.662598,-195.255447,1.89069371074513,2.44793067875049,2.16117392379003,14.745014,812.266846,155.102722,93.82383,1182.861206,-30.044403,"LATERAL"
151,17,20,34.644,5897.88,-0.375306,0.439732,-0.537368,0.614018,-0.92721,0.33191,-0.03514,5894.62,-0.086669,-0.768761,-0.033457,-0.632753,-0.96591,0.09174,0.19533,2.32,2.47,2.55,2.95,2.93,2.99,2.84,3.89,2.99,3.94,3.97,3.79,3.9,3.88,3.7,2692,11.216667,62434.647667,0.485842,954.578369,-195.252258,1.89076737502502,2.4482398805771,2.16079762873207,14.739054,812.280334,155.091461,93.833954,1182.832153,-30.13652,"LATERAL"
152,17,20,34.701,5897.9,-0.375237,0.439871,-0.537442,0.613896,-0.92674,0.3286,-0.03092,5894.64,-0.086628,-0.768777,-0.033467,-0.632738,-0.96212,0.09174,0.18769,2.32,2.47,2.55,2.95,2.93,2.99,2.84,3.9,2.99,3.94,3.97,3.79,3.9,3.88,3.7,2705,11.270833,62434.701833,0.417723,954.079651,-195.07428,1.89123772241799,2.45013473614707,2.15847742146746,14.842,812.419373,155.113541,93.887276,1182.665405,-30.550613,"LATERAL"
153,17,20,34.705,5897.92,-0.375249,0.439971,-0.537404,0.61385,-0.92791,0.33013,-0.03362,5894.66,-0.086716,-0.76892,-0.033559,-0.632548,-0.95933,0.08578,0.18138,2.32,2.47,2.55,2.95,2.93,2.99,2.84,3.9,2.99,3.94,3.97,3.79,3.9,3.88,3.7,2706,11.275,62434.706,0.422826,954.0448,-195.059555,1.89125541503821,2.45026643833569,2.15832574784072,14.863952,812.427429,155.122162,93.89753,1182.655884,-30.573051,"LATERAL"
154,17,20,34.71,5897.94,-0.375218,0.440128,-0.537299,0.613847,-0.93058,0.33013,-0.03448,5894.68,-0.086881,-0.769098,-0.033553,-0.632309,-0.95663,0.08378,0.17817,2.32,2.47,2.55,2.95,2.93,2.99,2.84,3.9,2.99,3.94,3.97,3.79,3.9,3.88,3.7,2707,11.279167,62434.710167,0.410805,954.001404,-195.037521,1.89131598249445,2.45039984201507,2.15814445952586,14.889066,812.433899,155.131775,93.904701,1182.642944,-30.592041,"LATERAL"
155,17,20,34.755,5897.96,-0.375193,0.440296,-0.537236,0.613797,-0.93354,0.32795,-0.0346,5894.7,-0.087075,-0.769228,-0.033483,-0.632128,-0.95867,0.08599,0.1747,2.33,2.47,2.55,2.95,2.93,2.99,2.84,3.89,2.99,3.94,3.97,3.79,3.9,3.88,3.7,2718,11.325,62434.756,0.410101,953.52948,-194.900101,1.8911676512531,2.45228505408558,2.15623251731573,15.107319,812.49762,155.140564,93.868195,1182.54187,-30.916723,"LATERAL"
156,17,20,34.761,5897.98,-0.375177,0.440435,-0.537179,0.613757,-0.92554,0.32159,-0.03523,5894.72,-0.087315,-0.769396,-0.033451,-0.631892,-0.95637,0.08517,0.17269,2.33,2.47,2.55,2.95,2.93,2.99,2.84,3.9,2.99,3.94,3.97,3.79,3.9,3.88,3.7,2720,11.333333,62434.764333,0.430705,953.451294,-194.895447,1.89100377025837,2.45262908662601,2.15597221979008,15.132092,812.504395,155.134979,93.844612,1182.533447,-30.972994,"LATERAL"
157,17,20,34.778,5898,-0.375419,0.440643,-0.537118,0.613514,-0.92906,0.32035,-0.04034,5894.74,-0.087448,-0.769524,-0.033324,-0.631724,-0.95677,0.07931,0.17475,2.33,2.47,2.55,2.95,2.93,2.99,2.84,3.89,2.99,3.94,3.97,3.79,3.9,3.88,3.7,2724,11.35,62434.781,0.493349,953.296204,-194.890076,1.89062599543372,2.45331038160189,2.15549111111519,15.169924,812.509521,155.105637,93.803017,1182.512207,-31.082834,"LATERAL"
158,17,20,34.796,5898.02,-0.375377,0.440748,-0.537066,0.613509,-0.93281,0.32007,-0.03359,5894.76,-0.087435,-0.769556,-0.033294,-0.631688,-0.95884,0.0784,0.17965,2.33,2.47,2.55,2.95,2.93,2.99,2.84,3.89,2.99,3.94,3.97,3.79,3.9,3.88,3.7,2728,11.366667,62434.797667,0.57163,953.160767,-194.914841,1.89028084123441,2.45389375936506,2.15509299625021,15.182891,812.523315,155.058807,93.784393,1182.487549,-31.205538,"LATERAL"
159,17,20,34.801,5898.04,-0.375365,0.440725,-0.536996,0.613595,-0.93736,0.32485,-0.03268,5894.78,-0.087544,-0.769621,-0.033329,-0.631592,-0.96019,0.0821,0.17833,2.33,2.47,2.55,2.95,2.93,2.99,2.84,3.9,2.99,3.94,3.97,3.79,3.9,3.88,3.7,2729,11.370833,62434.801833,0.589891,953.128418,-194.926697,1.89018897102936,2.45401739435459,2.15502072980693,15.186949,812.524597,155.044846,93.777473,1182.480225,-31.234045,"LATERAL"
160,17,20,34.836,5898.06,-0.375305,0.440746,-0.536893,0.613707,-0.93059,0.32851,-0.03444,5894.8,-0.08741,-0.769687,-0.033393,-0.631527,-0.96483,0.08273,0.18161,2.33,2.47,2.55,2.95,2.93,2.99,2.84,3.9,2.99,3.94,3.97,3.79,3.9,3.88,3.7,2738,11.408333,62434.839333,0.718538,952.878845,-195.041046,1.88987190113101,2.4550434315361,2.1541321690471,15.207117,812.586182,154.947769,93.81337,1182.415405,-31.574406,"LATERAL"
161,17,20,34.842,5898.08,-0.375369,0.440641,-0.536891,0.613744,-0.92995,0.32614,-0.03017,5894.82,-0.087176,-0.76977,-0.0333,-0.631463,-0.96188,0.08194,0.18574,2.33,2.47,2.55,2.95,2.93,2.99,2.84,3.9,2.99,3.94,3.97,3.79,3.9,3.88,3.7,2739,11.4125,62434.8435,0.725943,952.855042,-195.057068,1.88985431462338,2.4551556922288,2.15402384315884,15.1975,812.601807,154.940704,93.813988,1182.408203,-31.620476,"LATERAL"
162,17,20,34.899,5898.1,-0.375344,0.440536,-0.536829,0.613889,-0.93209,0.32495,-0.03542,5894.84,-0.08687,-0.769902,-0.033272,-0.631345,-0.95911,0.08432,0.19114,2.33,2.47,2.55,2.95,2.93,2.99,2.84,3.9,2.99,3.94,3.96,3.79,3.9,3.88,3.7,2753,11.470833,62434.901833,0.699727,952.498718,-195.353745,1.88995871391958,2.45622187702052,2.15281875097099,15.20947,812.693176,154.800507,93.810921,1182.236816,-32.226768,"LATERAL"
163,17,20,34.903,5898.12,-0.375218,0.440468,-0.536697,0.61413,-0.92665,0.3318,-0.02911,5894.86,-0.086653,-0.770087,-0.033483,-0.631139,-0.96627,0.08027,0.19174,2.33,2.47,2.55,2.95,2.93,2.99,2.84,3.89,2.99,3.94,3.97,3.79,3.9,3.88,3.7,2754,11.475,62434.906,0.685961,952.472595,-195.371048,1.8899987169659,2.45627939118741,2.15273141905203,15.216802,812.698181,154.794266,93.809441,1182.223999,-32.263943,"LATERAL"
164,17,20,34.908,5898.14,-0.374993,0.440448,-0.536543,0.614417,-0.93122,0.33571,-0.03376,5894.88,-0.086566,-0.770218,-0.033766,-0.630976,-0.9703,0.07525,0.18712,2.33,2.47,2.55,2.95,2.93,2.99,2.84,3.9,2.99,3.94,3.97,3.79,3.9,3.88,3.7,2755,11.479167,62434.910167,0.671721,952.449219,-195.386368,1.89002691037789,2.45634031586199,2.15264810397878,15.220643,812.700684,154.785629,93.802094,1182.209473,-32.301758,"LATERAL"
165,17,20,34.955,5898.16,-0.374699,0.440515,-0.536455,0.614625,-0.93086,0.33425,-0.02888,5894.9,-0.086314,-0.770295,-0.034196,-0.630893,-0.97859,0.06986,0.18516,2.33,2.47,2.56,2.95,2.93,2.99,2.84,3.9,2.99,3.94,3.97,3.79,3.9,3.88,3.7,2766,11.525,62434.956,0.557561,952.194702,-195.547256,1.89024569918908,2.45697193524001,2.15183178607324,15.267223,812.721252,154.707275,93.746887,1182.066895,-32.669781,"LATERAL"
166,17,20,34.96,5898.18,-0.374575,0.440469,-0.536467,0.614723,-0.93178,0.32819,-0.03749,5894.92,-0.086057,-0.77036,-0.034569,-0.630829,-0.97491,0.07169,0.18898,2.33,2.47,2.55,2.95,2.93,2.99,2.84,3.89,2.99,3.94,3.97,3.79,3.9,3.88,3.7,2767,11.529167,62434.960167,0.551396,952.173828,-195.563675,1.89025685713905,2.45701503079978,2.15177852089474,15.272776,812.721008,154.698883,93.744843,1182.056519,-32.697704,"LATERAL"
167,17,20,34.978,5898.2,-0.374517,0.440341,-0.536539,0.614787,-0.92691,0.32649,-0.03364,5894.94,-0.085766,-0.770427,-0.034964,-0.630765,-0.96833,0.07551,0.18773,2.33,2.47,2.55,2.95,2.93,2.99,2.84,3.9,2.99,3.94,3.96,3.79,3.9,3.88,3.7,2772,11.55,62434.981,0.549565,952.093933,-195.649689,1.8904164664142,2.45711625179026,2.1515666756745,15.278838,812.723999,154.657074,93.790993,1182.003052,-32.831005,"LATERAL"
168,17,20,34.983,5898.22,-0.374526,0.440193,-0.536576,0.614855,-0.92878,0.32898,-0.04457,5894.96,-0.085365,-0.770503,-0.035263,-0.63071,-0.96552,0.07861,0.18405,2.33,2.47,2.56,2.95,2.93,2.99,2.84,3.89,2.99,3.94,3.97,3.79,3.9,3.88,3.7,2773,11.554167,62434.985167,0.550483,952.084045,-195.667679,1.89045336295954,2.45712945575482,2.15152858014162,15.275402,812.726563,154.648834,93.801697,1181.994141,-32.859509,"LATERAL"
169,17,20,35.013,5898.24,-0.374584,0.440044,-0.536595,0.614909,-0.92841,0.33362,-0.03448,5894.98,-0.085043,-0.770572,-0.03559,-0.630651,-0.96865,0.07706,0.17948,2.33,2.47,2.56,2.95,2.93,2.99,2.84,3.9,2.99,3.94,3.97,3.79,3.91,3.88,3.7,2780,11.583333,62435.014333,0.573952,952.051636,-195.77951,1.89065838578853,2.45703970340299,2.15149105098141,15.238137,812.736206,154.598145,93.886215,1181.953003,-32.974907,"LATERAL"
170,17,20,35.036,5898.26,-0.374382,0.439969,-0.536711,0.614986,-0.9255,0.33883,-0.02849,5895,-0.084632,-0.770494,-0.03585,-0.630786,-0.96978,0.07624,0.17697,2.33,2.47,2.55,2.95,2.93,2.99,2.84,3.89,2.99,3.94,3.97,3.79,3.9,3.88,3.7,2786,11.608333,62435.039333,0.604262,952.037598,-195.889008,1.89069692926695,2.45697952433722,2.15153023818525,15.183472,812.743225,154.55542,93.929787,1181.933594,-33.070488,"LATERAL"
171,17,20,35.041,5898.28,-0.374362,0.43992,-0.536562,0.615162,-0.92435,0.33831,-0.03196,5895.02,-0.084231,-0.770436,-0.036072,-0.630898,-0.97466,0.07886,0.1774,2.33,2.47,2.56,2.95,2.93,2.99,2.84,3.89,2.99,3.94,3.97,3.79,3.9,3.88,3.7,2787,11.6125,62435.0435,0.607845,952.036743,-195.911331,1.89067849417802,2.45696115427168,2.15156185396242,15.176523,812.745178,154.546326,93.92804,1181.928955,-33.085205,"LATERAL"
172,17,20,35.099,5898.3,-0.374235,0.440013,-0.536373,0.615338,-0.92603,0.32921,-0.03125,5895.04,-0.083697,-0.770349,-0.036175,-0.63107,-0.97069,0.08022,0.18405,2.33,2.47,2.56,2.95,2.93,2.99,2.84,3.9,2.99,3.94,3.97,3.79,3.9,3.88,3.7,2801,11.670833,62435.101833,0.578542,951.886902,-196.060333,1.89018876980916,2.45727000882286,2.15155050860335,15.014338,812.715881,154.522354,93.761246,1181.838257,-33.236179,"LATERAL"
173,17,20,35.104,5898.32,-0.374064,0.440067,-0.536238,0.61552,-0.93195,0.32218,-0.0323,5895.06,-0.083164,-0.770302,-0.03621,-0.631195,-0.96509,0.07758,0.19158,2.33,2.47,2.56,2.95,2.93,2.99,2.84,3.9,2.99,3.94,3.96,3.79,3.9,3.88,3.7,2802,11.675,62435.106,0.56269,951.872986,-196.057816,1.89019960721439,2.45729319322436,2.15151870783286,15.003506,812.707397,154.519516,93.748169,1181.828003,-33.242039,"LATERAL"
174,17,20,35.109,5898.34,-0.37393,0.440119,-0.536096,0.615689,-0.92726,0.32115,-0.04403,5895.08,-0.082706,-0.770318,-0.036234,-0.631234,-0.96348,0.07938,0.1958,2.33,2.47,2.55,2.95,2.93,2.99,2.84,3.9,2.99,3.94,3.97,3.79,3.9,3.88,3.7,2803,11.679167,62435.110167,0.544526,951.859009,-196.052505,1.89020417640458,2.45731475332412,2.15149271488625,14.997525,812.697144,154.518997,93.7323,1181.820557,-33.241417,"LATERAL"
175,17,20,35.158,5898.36,-0.374027,0.440287,-0.536147,0.615465,-0.92855,0.32464,-0.03939,5895.1,-0.082465,-0.770416,-0.036311,-0.631142,-0.96001,0.08097,0.19226,2.33,2.47,2.56,2.95,2.93,2.99,2.84,3.89,2.99,3.94,3.97,3.79,3.9,3.88,3.7,2815,11.729167,62435.160167,0.156182,951.726379,-195.892975,1.89092724038421,2.45735492723947,2.15097928115537,14.932533,812.637756,154.530701,93.542992,1181.68396,-33.217442,"LATERAL"
176,17,20,35.164,5898.38,-0.37402,0.440241,-0.536196,0.61546,-0.93103,0.32699,-0.0425,5895.12,-0.082326,-0.770459,-0.036358,-0.631105,-0.96259,0.079,0.19176,2.33,2.47,2.56,2.95,2.93,2.99,2.84,3.89,2.99,3.94,3.97,3.79,3.9,3.88,3.7,2816,11.733333,62435.164333,0.118073,951.717041,-195.874542,1.89103793190934,2.45734555903087,2.15091715999975,14.93061,812.634827,154.529984,93.536156,1181.673096,-33.214264,"LATERAL"
177,17,20,35.168,5898.4,-0.374068,0.440181,-0.536178,0.615489,-0.93126,0.3298,-0.03911,5895.14,-0.082344,-0.770456,-0.036418,-0.631103,-0.96589,0.07462,0.18905,2.33,2.47,2.56,2.95,2.93,2.99,2.84,3.89,2.99,3.94,3.97,3.79,3.9,3.88,3.7,2817,11.7375,62435.1685,0.083964,951.71167,-195.856415,1.89112061847316,2.45734850386786,2.15086011597632,14.930837,812.631653,154.530289,93.524666,1181.666626,-33.211464,"LATERAL"
178,17,20,35.212,5898.42,-0.374055,0.440101,-0.536128,0.615598,-0.9278,0.33191,-0.03789,5895.16,-0.082378,-0.770392,-0.036639,-0.631163,-0.96741,0.06982,0.18705,2.33,2.47,2.56,2.95,2.93,2.99,2.84,3.89,2.99,3.94,3.96,3.79,3.9,3.88,3.7,2828,11.783333,62435.214333,-0.216136,951.710999,-195.672455,1.89206505514105,2.45716280484376,2.15044197922071,14.910404,812.622314,154.562042,93.485703,1181.619263,-33.139687,"LATERAL"
179,17,20,35.217,5898.44,-0.374085,0.439939,-0.536133,0.615691,-0.92747,0.331,-0.03896,5895.18,-0.082676,-0.770317,-0.036813,-0.631206,-0.9691,0.06595,0.18426,2.33,2.47,2.56,2.95,2.93,2.99,2.84,3.89,2.99,3.94,3.97,3.79,3.9,3.88,3.7,2829,11.7875,62435.2185,-0.234793,951.707825,-195.657578,1.89214788620514,2.45716162050996,2.15038908227412,14.913288,812.618286,154.561218,93.490906,1181.617188,-33.137009,"LATERAL"
180,17,20,35.237,5898.46,-0.374077,0.439773,-0.536243,0.615718,-0.92739,0.33261,-0.03674,5895.2,-0.082916,-0.770232,-0.037032,-0.631266,-0.96898,0.06583,0.1842,2.33,2.47,2.56,2.95,2.93,2.99,2.84,3.9,2.99,3.94,3.97,3.79,3.9,3.88,3.7,2834,11.808333,62435.239333,-0.301306,951.673218,-195.599167,1.89240187308759,2.45723926497016,2.15013989780276,14.91876,812.628296,154.582001,93.493668,1181.591675,-33.144337,"LATERAL"
181,17,20,35.243,5898.48,-0.374109,0.439619,-0.536299,0.615761,-0.92444,0.33207,-0.03554,5895.22,-0.08311,-0.770215,-0.037059,-0.631259,-0.97089,0.06777,0.1859,2.33,2.47,2.56,2.95,2.93,2.99,2.84,3.89,2.99,3.94,3.96,3.79,3.9,3.88,3.7,2835,11.8125,62435.2435,-0.310591,951.657288,-195.587677,1.89244295095775,2.45726494346111,2.15008555239127,14.923525,812.629761,154.585144,93.497742,1181.584961,-33.143234,"LATERAL"
182,17,20,35.294,5898.5,-0.374112,0.43947,-0.536374,0.615799,-0.92395,0.33339,-0.0342,5895.24,-0.083232,-0.770254,-0.037014,-0.631199,-0.97372,0.07173,0.18577,2.33,2.47,2.56,2.95,2.93,2.99,2.84,3.9,2.99,3.94,3.97,3.79,3.9,3.88,3.7,2848,11.866667,62435.297667,-0.143057,951.274902,-195.636688,1.89194077994656,2.45832801954529,2.14927741013129,14.915916,812.638123,154.587891,93.52533,1181.405396,-33.390491,"LATERAL"
183,17,20,35.299,5898.52,-0.374141,0.439332,-0.536423,0.615838,-0.92744,0.33079,-0.03786,5895.26,-0.083197,-0.77028,-0.037012,-0.631172,-0.97543,0.07113,0.18457,2.33,2.47,2.56,2.95,2.93,2.99,2.84,3.89,2.99,3.94,3.97,3.79,3.9,3.88,3.7,2849,11.870833,62435.301833,-0.108405,951.23291,-195.655289,1.89181751013588,2.45845903374827,2.14921793102141,14.908148,812.637207,154.582428,93.524673,1181.386475,-33.424908,"LATERAL"
184,17,20,35.316,5898.54,-0.374174,0.439203,-0.536445,0.615891,-0.92812,0.33085,-0.03681,5895.28,-0.083278,-0.770346,-0.036925,-0.631085,-0.97051,0.07036,0.18602,2.33,2.47,2.55,2.95,2.93,2.99,2.84,3.9,2.99,3.94,3.97,3.79,3.9,3.88,3.69,2853,11.8875,62435.3185,0.069045,951.049561,-195.746292,1.89120698389387,2.459025671077,2.14901097684415,14.877993,812.627563,154.55011,93.530281,1181.309448,-33.567181,"LATERAL"
185,17,20,35.32,5898.56,-0.374192,0.439102,-0.53648,0.615921,-0.92589,0.3299,-0.04081,5895.3,-0.083164,-0.770412,-0.037017,-0.631014,-0.96587,0.06827,0.18743,2.33,2.47,2.56,2.95,2.93,2.99,2.84,3.9,2.99,3.94,3.97,3.79,3.9,3.88,3.7,2854,11.891667,62435.322667,0.11972,951.001709,-195.771042,1.89103947883797,2.4591812373884,2.14895399102806,14.868717,812.621948,154.540405,93.53405,1181.291382,-33.605621,"LATERAL"
186,17,20,35.353,5898.58,-0.374253,0.439016,-0.536486,0.61594,-0.92841,0.33112,-0.04128,5895.32,-0.083089,-0.770429,-0.036877,-0.631011,-0.96594,0.06674,0.18985,2.33,2.47,2.56,2.95,2.93,2.99,2.84,3.89,2.99,3.94,3.97,3.79,3.9,3.88,3.7,2862,11.925,62435.356,0.541523,950.608826,-196.036575,1.88938379119607,2.46046736172362,2.14865746326905,14.72211,812.620789,154.491013,93.49649,1181.156616,-33.932468,"LATERAL"
187,17,20,35.376,5898.6,-0.374334,0.438911,-0.536524,0.615932,-0.92868,0.32901,-0.04381,5895.34,-0.082933,-0.770404,-0.036751,-0.63107,-0.96364,0.06543,0.19284,2.33,2.47,2.56,2.95,2.93,2.99,2.84,3.9,2.99,3.94,3.97,3.79,3.91,3.88,3.7,2867,11.945833,62435.376833,0.810475,950.379883,-196.23288,1.88825373126405,2.46129620663963,2.14850504390408,14.629679,812.634521,154.45787,93.453529,1181.098999,-34.155056,"LATERAL"
188,17,20,35.381,5898.62,-0.374415,0.438802,-0.536577,0.615915,-0.92732,0.33139,-0.04082,5895.36,-0.082719,-0.77042,-0.036971,-0.631065,-0.96666,0.06562,0.19453,2.33,2.47,2.56,2.95,2.93,2.99,2.84,3.89,2.99,3.94,3.97,3.79,3.9,3.88,3.7,2868,11.95,62435.381,0.863258,950.33136,-196.272507,1.88804976107416,2.46145548124949,2.14846698666723,14.609413,812.637695,154.455246,93.450951,1181.085571,-34.200378,"LATERAL"
189,17,20,35.431,5898.64,-0.374481,0.438714,-0.536604,0.615914,-0.92749,0.33397,-0.03852,5895.38,-0.082653,-0.770363,-0.037053,-0.631138,-0.96858,0.06988,0.19758,2.33,2.47,2.56,2.95,2.93,2.99,2.84,3.89,2.99,3.94,3.97,3.79,3.9,3.88,3.7,2880,12,62435.431,1.285296,949.796692,-196.603302,1.88555409975407,2.46348772677358,2.14790707814639,14.473513,812.670105,154.48938,93.176315,1180.948242,-34.657459,"LATERAL"
190,17,20,35.436,5898.66,-0.374324,0.438656,-0.536727,0.615943,-0.9244,0.33315,-0.03943,5895.4,-0.082636,-0.770371,-0.037412,-0.63111,-0.96523,0.07078,0.19554,2.33,2.47,2.56,2.95,2.93,2.99,2.84,3.9,2.99,3.94,3.97,3.79,3.9,3.88,3.7,2882,12.008333,62435.439333,1.309561,949.710815,-196.624771,1.88520971113816,2.46383177424334,2.14776111988651,14.467703,812.676758,154.500717,93.10453,1180.929321,-34.7132,"LATERAL"
191,17,20,35.454,5898.68,-0.37434,0.438608,-0.536778,0.615923,-0.92182,0.33318,-0.04135,5895.42,-0.082701,-0.770399,-0.037629,-0.631055,-0.96774,0.06705,0.18917,2.33,2.47,2.56,2.95,2.93,2.99,2.84,3.89,2.99,3.94,3.97,3.79,3.9,3.88,3.7,2886,12.025,62435.456,1.327017,949.541748,-196.629486,1.88460508712096,2.46449754998895,2.14743847577006,14.465546,812.68634,154.524841,92.952911,1180.888184,-34.795345,"LATERAL"
192,17,20,35.459,5898.7,-0.374185,0.438679,-0.537014,0.615762,-0.92412,0.33268,-0.03406,5895.44,-0.08274,-0.770489,-0.037792,-0.63093,-0.9721,0.06445,0.18274,2.33,2.47,2.56,2.95,2.93,2.99,2.84,3.9,2.99,3.94,3.97,3.79,3.9,3.88,3.69,2887,12.029167,62435.460167,1.32436,949.502808,-196.624832,1.88445872558918,2.4646697428258,2.14734851057415,14.46556,812.68689,154.531464,92.908722,1180.880737,-34.813446,"LATERAL"
193,17,20,35.513,5898.72,-0.374215,0.438659,-0.537058,0.615719,-0.92604,0.33398,-0.03542,5895.46,-0.082587,-0.770464,-0.037956,-0.630971,-0.97124,0.06662,0.18009,2.33,2.47,2.56,2.95,2.93,2.99,2.84,3.9,2.99,3.94,3.96,3.79,3.9,3.88,3.7,2900,12.083333,62435.514333,1.245782,949.023132,-196.497055,1.88339551641103,2.46670432593519,2.14585650997077,14.58521,812.75824,154.589355,92.526268,1180.769653,-35.063549,"LATERAL"
194,17,20,35.518,5898.74,-0.374269,0.438639,-0.537059,0.6157,-0.93075,0.33602,-0.03435,5895.48,-0.08261,-0.770522,-0.038092,-0.630888,-0.96355,0.06909,0.17822,2.33,2.47,2.56,2.95,2.93,2.99,2.84,3.9,2.99,3.94,3.96,3.79,3.9,3.88,3.69,2901,12.0875,62435.5185,1.240663,948.994873,-196.485535,1.88335488699947,2.46684048935746,2.14573701609139,14.601124,812.766663,154.588623,92.508888,1180.764648,-35.083183,"LATERAL"
195,17,20,35.536,5898.76,-0.374065,0.438702,-0.537263,0.615601,-0.92976,0.33555,-0.03531,5895.5,-0.082404,-0.770472,-0.038118,-0.630975,-0.95543,0.06925,0.17533,2.33,2.47,2.56,2.95,2.93,2.99,2.84,3.9,2.99,3.94,3.96,3.79,3.9,3.88,3.7,2906,12.108333,62435.539333,1.206087,948.874451,-196.452026,1.88335076373706,2.46737128714665,2.14517220727764,14.668826,812.801575,154.575867,92.473412,1180.743286,-35.189922,"LATERAL"
196,17,20,35.554,5898.78,-0.374083,0.438719,-0.537278,0.615565,-0.92714,0.33353,-0.0388,5895.52,-0.08243,-0.770567,-0.038214,-0.630849,-0.95588,0.06709,0.17254,2.33,2.47,2.56,2.95,2.93,2.99,2.84,3.89,2.99,3.94,3.97,3.79,3.9,3.88,3.7,2910,12.125,62435.556,1.200841,948.798645,-196.455536,1.88336099820355,2.46768959161452,2.14482528141231,14.714272,812.822449,154.542923,92.473503,1180.732666,-35.27557,"LATERAL"
197,17,20,35.559,5898.8,-0.374012,0.438866,-0.537432,0.615368,-0.92787,0.33243,-0.03714,5895.54,-0.082419,-0.770639,-0.038284,-0.630759,-0.95937,0.06709,0.16935,2.33,2.47,2.56,2.95,2.93,2.99,2.84,3.9,2.99,3.94,3.97,3.79,3.9,3.88,3.7,2911,12.129167,62435.560167,1.198338,948.785645,-196.459457,1.88338792320335,2.46774399555184,2.14474982295911,14.726858,812.829407,154.532272,92.479515,1180.732056,-35.296692,"LATERAL"
198,17,20,35.611,5898.82,-0.374031,0.438866,-0.537404,0.615381,-0.92957,0.33337,-0.03784,5895.56,-0.081981,-0.770501,-0.03808,-0.630997,-0.96172,0.06674,0.17036,2.33,2.47,2.56,2.95,2.93,2.99,2.84,3.9,2.99,3.94,3.97,3.79,3.91,3.88,3.7,2924,12.183333,62435.614333,1.14295,948.735718,-196.529327,1.8846345702875,2.46774977330408,2.14394189276397,14.830674,812.883728,154.362595,92.777328,1180.686157,-35.565948,"LATERAL"
199,17,20,35.615,5898.84,-0.373996,0.438877,-0.537309,0.615478,-0.92786,0.3335,-0.03434,5895.58,-0.08156,-0.770557,-0.037856,-0.630997,-0.96605,0.06808,0.17526,2.33,2.47,2.56,2.95,2.93,2.99,2.83,3.9,2.99,3.94,3.97,3.79,3.91,3.88,3.7,2925,12.1875,62435.6185,1.132881,948.737183,-196.536163,1.88481287971288,2.46773872821874,2.14383876570252,14.837926,812.891296,154.338089,92.817009,1180.684082,-35.599541,"LATERAL"
200,17,20,35.634,5898.86,-0.373952,0.438874,-0.537249,0.615559,-0.92644,0.3305,-0.03784,5895.6,-0.08086,-0.770592,-0.037495,-0.631066,-0.97044,0.06949,0.18206,2.33,2.47,2.56,2.95,2.93,2.99,2.84,3.9,2.99,3.94,3.96,3.79,3.9,3.88,3.7,2929,12.204167,62435.635167,1.099649,948.743713,-196.591568,1.88548685038206,2.46762186717719,2.14352879375169,14.874721,812.942932,154.273712,92.975082,1180.671631,-35.730415,"LATERAL"
201,17,20,35.639,5898.88,-0.373905,0.43883,-0.537193,0.615668,-0.92681,0.32692,-0.03836,5895.62,-0.080086,-0.77065,-0.037091,-0.631117,-0.96891,0.07014,0.18926,2.33,2.47,2.56,2.95,2.93,2.99,2.84,3.89,2.99,3.94,3.97,3.79,3.91,3.88,3.7,2930,12.208333,62435.639333,1.099655,948.744324,-196.613144,1.88562850973784,2.46761288888624,2.1434468423322,14.886691,812.953857,154.266357,93.015778,1180.672363,-35.771198,"LATERAL"
202,17,20,35.692,5898.9,-0.373986,0.438793,-0.537182,0.615655,-0.92721,0.32715,-0.04065,5895.64,-0.079327,-0.770761,-0.036695,-0.631101,-0.9654,0.06984,0.19381,2.33,2.47,2.56,2.95,2.93,2.99,2.84,3.9,2.99,3.94,3.97,3.79,3.91,3.88,3.71,2943,12.2625,62435.6935,1.065723,948.747498,-196.898163,1.88724842407895,2.46709510583625,2.14295157616751,15.067169,813.126831,154.114395,93.436066,1180.572388,-36.184784,"LATERAL"
203,17,20,35.697,5898.92,-0.373929,0.438698,-0.537236,0.61571,-0.92923,0.32659,-0.04201,5895.66,-0.078596,-0.770827,-0.036365,-0.63113,-0.97499,0.06632,0.19313,2.33,2.47,2.56,2.95,2.93,2.99,2.84,3.9,2.99,3.94,3.97,3.79,3.91,3.88,3.7,2944,12.266667,62435.697667,1.051036,948.745972,-196.913239,1.88738865610316,2.46704150095275,2.14291788896908,15.081436,813.13739,154.108459,93.460152,1180.55896,-36.209629,"LATERAL"
204,17,20,35.715,5898.94,-0.373806,0.438609,-0.537253,0.615833,-0.92972,0.32921,-0.0433,5895.68,-0.077948,-0.770761,-0.03601,-0.631312,-0.97356,0.06295,0.19407,2.33,2.47,2.56,2.95,2.93,2.99,2.84,3.89,2.99,3.94,3.96,3.79,3.91,3.88,3.7,2949,12.2875,62435.7185,0.966843,948.732361,-196.944687,1.88816348652259,2.46688093207231,2.14258576642455,15.171825,813.185425,154.074661,93.595627,1180.518433,-36.321991,"LATERAL"
205,17,20,35.72,5898.96,-0.373657,0.438503,-0.537187,0.616057,-0.93098,0.33493,-0.04381,5895.7,-0.07747,-0.770596,-0.035926,-0.631577,-0.97313,0.06339,0.19482,2.33,2.47,2.56,2.95,2.93,2.99,2.84,3.9,2.99,3.94,3.96,3.79,3.91,3.88,3.7,2950,12.291667,62435.722667,0.947063,948.728088,-196.942413,1.8883249998094,2.46687759536264,2.14248408611929,15.188666,813.196655,154.071014,93.622177,1180.515503,-36.343739,"LATERAL"
206,17,20,35.753,5898.98,-0.373457,0.438477,-0.537101,0.616271,-0.92625,0.33892,-0.03823,5895.72,-0.07719,-0.770321,-0.035965,-0.631944,-0.96999,0.06149,0.19667,2.33,2.47,2.56,2.95,2.93,2.99,2.84,3.9,2.99,3.94,3.97,3.79,3.91,3.88,3.71,2958,12.325,62435.756,0.804471,948.739929,-196.909134,1.88982756710446,2.46665573367455,2.14174022083311,15.297354,813.295898,154.048615,93.902306,1180.484009,-36.497711,"LATERAL"
207,17,20,35.779,5899,-0.373172,0.438494,-0.537005,0.616515,-0.92203,0.34131,-0.03327,5895.74,-0.076974,-0.770032,-0.036085,-0.632316,-0.96629,0.06002,0.19488,2.33,2.47,2.56,2.95,2.93,2.99,2.84,3.89,2.99,3.94,3.97,3.79,3.9,3.88,3.7,2964,12.35,62435.781,0.727314,948.785095,-196.896011,1.8908851656287,2.46639367255874,2.14132763915898,15.340731,813.363281,154.035385,94.122696,1180.47937,-36.588467,"LATERAL"
208,17,20,35.784,5899.02,-0.372957,0.438465,-0.536809,0.616837,-0.92484,0.33819,-0.03603,5895.76,-0.076685,-0.769806,-0.036265,-0.632616,-0.96824,0.05899,0.19057,2.33,2.47,2.56,2.95,2.93,2.99,2.84,3.9,2.99,3.94,3.97,3.8,3.91,3.88,3.7,2965,12.354167,62435.785167,0.713461,948.797485,-196.899384,1.89105063586397,2.46633314753062,2.14128385555951,15.350123,813.370117,154.035309,94.154305,1180.477661,-36.604763,"LATERAL"
209,17,20,35.833,5899.04,-0.372744,0.438478,-0.53658,0.617156,-0.92637,0.33927,-0.03404,5895.78,-0.076443,-0.769691,-0.036405,-0.632778,-0.97168,0.06053,0.18748,2.33,2.47,2.56,2.95,2.93,2.99,2.84,3.9,2.99,3.94,3.97,3.79,3.91,3.88,3.71,2977,12.404167,62435.835167,0.760967,948.951477,-196.998474,1.89231673509036,2.46558148365689,2.14125714017704,15.294542,813.418457,153.972458,94.554451,1180.4823,-36.717327,"LATERAL"
210,17,20,35.838,5899.06,-0.372505,0.438546,-0.536385,0.617421,-0.92627,0.33901,-0.03533,5895.8,-0.076206,-0.769646,-0.036663,-0.632845,-0.9707,0.06529,0.18485,2.33,2.47,2.56,2.95,2.93,2.99,2.84,3.9,2.99,3.94,3.97,3.8,3.91,3.88,3.7,2978,12.408333,62435.839333,0.769602,948.961731,-197.011353,1.8923649729084,2.46552061871002,2.14129067937553,15.29027,813.416077,153.968613,94.576897,1180.481812,-36.721439,"LATERAL"
211,17,20,35.858,5899.08,-0.37235,0.438594,-0.536158,0.617677,-0.92662,0.33752,-0.03038,5895.82,-0.076045,-0.769648,-0.036857,-0.632851,-0.97137,0.06459,0.18396,2.33,2.47,2.56,2.95,2.93,2.99,2.84,3.9,2.99,3.94,3.96,3.79,3.91,3.88,3.71,2983,12.429167,62435.860167,0.834453,949.003235,-197.094086,1.89244843415461,2.46530399158987,2.14146823738742,15.234365,813.411255,153.92189,94.663895,1180.479736,-36.762135,"LATERAL"
212,17,20,35.863,5899.1,-0.372224,0.43864,-0.535962,0.617891,-0.93087,0.33522,-0.03458,5895.84,-0.075806,-0.769681,-0.036912,-0.632837,-0.97163,0.0614,0.186,2.33,2.47,2.56,2.95,2.93,2.99,2.84,3.9,2.99,3.94,3.97,3.79,3.91,3.88,3.7,2984,12.433333,62435.864333,0.845968,949.007507,-197.111954,1.8924651408919,2.46525306948291,2.14151189430515,15.224166,813.411011,153.906342,94.681129,1180.477051,-36.767365,"LATERAL"
213,17,20,35.893,5899.12,-0.372071,0.438693,-0.535725,0.61815,-0.92904,0.33276,-0.03601,5895.86,-0.075706,-0.769841,-0.037141,-0.63264,-0.96978,0.06323,0.19193,2.33,2.47,2.56,2.95,2.93,2.99,2.84,3.9,3,3.94,3.97,3.79,3.9,3.88,3.7,2991,12.4625,62435.8935,0.918706,949.006104,-197.182144,1.8925469264384,2.46510185061502,2.14162030475185,15.154779,813.384399,153.83905,94.777374,1180.44873,-36.809662,"LATERAL"
214,17,20,35.919,5899.14,-0.371996,0.438688,-0.535538,0.618361,-0.92453,0.3316,-0.04081,5895.88,-0.075852,-0.770027,-0.037511,-0.632375,-0.96333,0.06834,0.1874,2.33,2.47,2.55,2.95,2.93,2.99,2.84,3.9,3,3.94,3.96,3.79,3.91,3.88,3.71,2998,12.491667,62435.922667,0.936539,948.958862,-197.173691,1.89281325522507,2.46505036655605,2.14149978408406,15.08639,813.345215,153.797073,94.872345,1180.397217,-36.827641,"LATERAL"
215,17,20,35.923,5899.16,-0.372001,0.438672,-0.535453,0.618444,-0.9254,0.33058,-0.03966,5895.9,-0.076106,-0.770228,-0.037853,-0.632079,-0.96249,0.06095,0.18255,2.33,2.47,2.55,2.95,2.93,2.99,2.84,3.89,3,3.95,3.96,3.8,3.91,3.88,3.7,2999,12.495833,62435.926833,0.937113,948.951782,-197.168976,1.89285356062515,2.46504304526254,2.14148102803211,15.073091,813.345825,153.795517,94.884621,1180.389648,-36.827007,"LATERAL"
216,17,20,35.981,5899.18,-0.372076,0.438548,-0.535394,0.618538,-0.92542,0.33292,-0.04231,5895.92,-0.076275,-0.77046,-0.038003,-0.631767,-0.96589,0.05957,0.18345,2.32,2.47,2.55,2.95,2.93,2.99,2.84,3.9,3,3.94,3.97,3.8,3.91,3.88,3.71,3012,12.55,62435.981,0.941521,948.898071,-197.04599,1.89326563056043,2.46497792831325,2.14127863573649,14.983771,813.278259,153.824432,95.00351,1180.320068,-36.757187,"LATERAL"
217,17,20,35.988,5899.2,-0.372153,0.438487,-0.5354,0.61853,-0.92808,0.3331,-0.04292,5895.94,-0.076402,-0.770659,-0.03803,-0.631507,-0.96516,0.06062,0.19067,2.32,2.47,2.55,2.95,2.93,2.99,2.83,3.9,3,3.94,3.97,3.79,3.91,3.88,3.71,3014,12.558333,62435.989333,0.938312,948.906494,-197.022766,1.89331763054738,2.46491945897056,2.1413070498403,14.971439,813.272705,153.837296,95.011566,1180.309326,-36.732613,"LATERAL"
218,17,20,35.994,5899.22,-0.372276,0.438307,-0.535322,0.618651,-0.93026,0.33573,-0.0399,5895.96,-0.076717,-0.770808,-0.038187,-0.631277,-0.96723,0.05934,0.19094,2.32,2.47,2.55,2.95,2.93,2.99,2.83,3.9,3,3.94,3.97,3.8,3.91,3.88,3.71,3016,12.566667,62435.997667,0.936695,948.907043,-196.995621,1.89335613786345,2.46488259889656,2.14132117347309,14.963344,813.256714,153.855011,95.022408,1180.307007,-36.699181,"LATERAL"
219,17,20,36.02,5899.24,-0.372371,0.438147,-0.535206,0.618806,-0.92967,0.3404,-0.0407,5895.98,-0.07725,-0.770866,-0.038383,-0.63113,-0.96964,0.05647,0.18964,2.32,2.47,2.55,2.95,2.93,2.99,2.83,3.9,3,3.94,3.97,3.79,3.91,3.88,3.71,3022,12.591667,62436.022667,0.936708,948.918945,-196.924698,1.89349189578728,2.46474505821341,2.14137910228236,14.948141,813.222534,153.895035,95.05954,1180.290649,-36.615654,"LATERAL"
220,17,20,36.026,5899.26,-0.372291,0.438013,-0.535281,0.618884,-0.92678,0.34075,-0.03753,5896,-0.077783,-0.770929,-0.038716,-0.630967,-0.97077,0.05432,0.19174,2.32,2.47,2.55,2.95,2.93,2.99,2.83,3.9,3,3.94,3.97,3.8,3.91,3.88,3.7,3023,12.595833,62436.026833,0.935462,948.919678,-196.911728,1.89350285400741,2.46473539142602,2.14138223531302,14.951666,813.209106,153.901932,95.060272,1180.286865,-36.603786,"LATERAL"
221,17,20,36.073,5899.28,-0.372348,0.437821,-0.535273,0.618993,-0.92266,0.33847,-0.03999,5896.02,-0.078327,-0.77104,-0.039034,-0.630744,-0.97168,0.05462,0.19128,2.32,2.47,2.55,2.95,2.93,2.99,2.83,3.9,3,3.94,3.97,3.8,3.91,3.88,3.7,3035,12.645833,62436.076833,0.869048,948.899048,-196.722855,1.89366970895365,2.46473933645352,2.14126756629699,14.926158,813.154846,153.975067,95.03804,1180.260132,-36.448292,"LATERAL"
222,17,20,36.08,5899.3,-0.372279,0.437707,-0.535292,0.619099,-0.92168,0.33824,-0.04267,5896.04,-0.078781,-0.771175,-0.039263,-0.630509,-0.97171,0.05913,0.18938,2.32,2.47,2.55,2.95,2.93,2.99,2.83,3.9,3,3.94,3.97,3.79,3.91,3.88,3.71,3036,12.65,62436.081,0.862158,948.89856,-196.709061,1.89369173947439,2.46472841895528,2.1412647094222,14.922445,813.152344,153.980789,95.036835,1180.256348,-36.436089,"LATERAL"
223,17,20,36.098,5899.32,-0.372321,0.437614,-0.535229,0.619194,-0.92562,0.33958,-0.04429,5896.06,-0.078997,-0.771347,-0.03932,-0.630268,-0.97178,0.06212,0.18466,2.32,2.47,2.55,2.95,2.93,2.99,2.83,3.9,3,3.94,3.97,3.79,3.91,3.88,3.71,3041,12.670833,62436.101833,0.827911,948.880432,-196.641922,1.89377306944695,2.46476702789292,2.1411693780972,14.905811,813.137756,154.01503,95.025513,1180.245483,-36.392704,"LATERAL"
224,17,20,36.105,5899.34,-0.372373,0.437535,-0.535155,0.619282,-0.92683,0.33925,-0.04593,5896.08,-0.079111,-0.77158,-0.039257,-0.629972,-0.97348,0.05978,0.18347,2.32,2.47,2.55,2.95,2.93,2.99,2.83,3.9,3,3.94,3.97,3.8,3.91,3.88,3.71,3042,12.675,62436.106,0.820655,948.879761,-196.629623,1.89378452826841,2.4647594675735,2.14116991160677,14.901062,813.133911,154.019699,95.020439,1180.240845,-36.382046,"LATERAL"
225,17,20,36.135,5899.36,-0.372418,0.43745,-0.535035,0.619419,-0.9247,0.33637,-0.04848,5896.1,-0.079002,-0.771788,-0.039205,-0.629734,-0.96882,0.0588,0.18748,2.32,2.47,2.55,2.95,2.93,3,2.83,3.9,3,3.94,3.97,3.8,3.91,3.88,3.71,3049,12.704167,62436.135167,0.767235,948.852661,-196.557816,1.89382391061064,2.46480031978473,2.14109993684135,14.860929,813.102051,154.083389,94.976303,1180.216919,-36.33078,"LATERAL"
226,17,20,36.14,5899.38,-0.372474,0.43738,-0.534938,0.619518,-0.9251,0.33252,-0.05061,5896.12,-0.078854,-0.772012,-0.039049,-0.629487,-0.96617,0.06018,0.18856,2.32,2.47,2.55,2.95,2.93,2.99,2.83,3.9,3,3.94,3.97,3.8,3.91,3.88,3.7,3051,12.7125,62436.1435,0.752385,948.843445,-196.538315,1.89383819800854,2.46480011679043,2.14109069083099,14.856074,813.087219,154.096115,94.96447,1180.2052,-36.315296,"LATERAL"
227,17,20,36.193,5899.4,-0.372602,0.437344,-0.534866,0.619529,-0.92344,0.33182,-0.04994,5896.14,-0.078567,-0.772198,-0.038755,-0.629313,-0.96252,0.05842,0.19191,2.32,2.47,2.55,2.95,2.93,2.99,2.83,3.9,3,3.94,3.97,3.8,3.9,3.88,3.7,3063,12.7625,62436.1935,0.620412,948.834045,-196.435089,1.89393667665098,2.46467735257194,2.14115734735753,14.791182,813.023865,154.14296,94.861153,1180.175293,-36.193817,"LATERAL"
228,17,20,36.201,5899.42,-0.372664,0.437262,-0.534857,0.619557,-0.92262,0.33179,-0.04527,5896.16,-0.07815,-0.772378,-0.038521,-0.629159,-0.96099,0.05427,0.19589,2.32,2.47,2.55,2.95,2.93,2.99,2.83,3.9,3,3.94,3.97,3.79,3.91,3.88,3.71,3065,12.770833,62436.201833,0.591634,948.839905,-196.418259,1.89392203033428,2.46464310251402,2.14120384857512,14.787193,813.01593,154.148315,94.827316,1180.172485,-36.166965,"LATERAL"
229,17,20,36.217,5899.44,-0.372695,0.437215,-0.534869,0.619562,-0.92301,0.33255,-0.04904,5896.18,-0.07779,-0.772524,-0.038224,-0.629042,-0.96294,0.05512,0.19737,2.32,2.47,2.55,2.95,2.93,2.99,2.83,3.9,3,3.94,3.97,3.8,3.91,3.88,3.71,3069,12.7875,62436.2185,0.535946,948.851196,-196.399185,1.89394343071557,2.46456279726118,2.1412759466897,14.779281,812.996277,154.154877,94.777641,1180.168823,-36.129898,"LATERAL"
230,17,20,36.222,5899.46,-0.372577,0.437316,-0.535153,0.619316,-0.92568,0.33351,-0.04147,5896.2,-0.077409,-0.772655,-0.038131,-0.628935,-0.96573,0.05659,0.19526,2.32,2.47,2.55,2.95,2.93,2.99,2.83,3.9,3,3.94,3.97,3.8,3.91,3.88,3.71,3070,12.791667,62436.222667,0.51849,948.856689,-196.399124,1.89396423370024,2.46452950950573,2.14129792655218,14.781578,812.995728,154.15564,94.766472,1180.169189,-36.123611,"LATERAL"
231,17,20,36.258,5899.48,-0.37268,0.437212,-0.535286,0.619213,-0.92446,0.33505,-0.043,5896.22,-0.077206,-0.772774,-0.038035,-0.628818,-0.96988,0.05671,0.19252,2.32,2.47,2.55,2.95,2.93,2.99,2.83,3.9,3,3.94,3.97,3.79,3.91,3.88,3.71,3079,12.829167,62436.260167,0.420208,948.945068,-196.425064,1.89400150790106,2.46410130486347,2.14173321857563,14.795356,812.958313,154.164078,94.67646,1180.172485,-36.044617,"LATERAL"
232,17,20,36.264,5899.5,-0.372713,0.437148,-0.535456,0.619091,-0.92296,0.33822,-0.04606,5896.24,-0.077075,-0.772856,-0.037956,-0.628739,-0.96971,0.05995,0.19308,2.32,2.47,2.55,2.95,2.93,2.99,2.83,3.9,3,3.94,3.97,3.8,3.91,3.88,3.71,3080,12.833333,62436.264333,0.409875,948.959412,-196.435043,1.89400354104613,2.46401825374011,2.14182107532722,14.795446,812.957031,154.162018,94.667648,1180.173706,-36.031044,"LATERAL"
233,17,20,36.299,5899.52,-0.372763,0.437128,-0.535629,0.618926,-0.92447,0.33946,-0.04667,5896.26,-0.076876,-0.772881,-0.037995,-0.62873,-0.95902,0.05924,0.19383,2.32,2.47,2.55,2.95,2.93,2.99,2.83,3.9,3,3.94,3.97,3.8,3.91,3.88,3.71,3089,12.870833,62436.301833,0.282329,949.129028,-196.563477,1.8942952855718,2.46315777124102,2.14255192035857,14.82757,812.938293,154.160492,94.624573,1180.188965,-35.972992,"LATERAL"
234,17,20,36.305,5899.54,-0.372835,0.437091,-0.535803,0.618757,-0.92524,0.34096,-0.04276,5896.28,-0.076925,-0.772987,-0.038009,-0.628593,-0.97463,0.05865,0.19367,2.32,2.47,2.55,2.95,2.93,2.99,2.83,3.9,3,3.94,3.97,3.8,3.91,3.88,3.71,3090,12.875,62436.306,0.267555,949.151245,-196.581879,1.89432624346637,2.46304509417865,2.14265239907552,14.828976,812.934814,154.162582,94.618706,1180.190674,-35.965984,"LATERAL"
235,17,20,36.34,5899.56,-0.372766,0.437063,-0.536001,0.618647,-0.92386,0.34195,-0.04365,5896.3,-0.076687,-0.773004,-0.038237,-0.628588,-0.96599,0.05737,0.19718,2.32,2.47,2.55,2.94,2.93,2.99,2.83,3.9,3,3.94,3.96,3.8,3.91,3.88,3.71,3099,12.9125,62436.3435,0.111004,949.382874,-196.744995,1.89472002099922,2.46201092155525,2.14350175636532,14.828858,812.929749,154.187164,94.579376,1180.245239,-35.90625,"LATERAL"
236,17,20,36.347,5899.58,-0.372826,0.437064,-0.536095,0.618529,-0.92402,0.33981,-0.04278,5896.32,-0.076772,-0.77304,-0.038307,-0.628528,-0.96504,0.06069,0.1935,2.32,2.47,2.55,2.95,2.93,2.99,2.83,3.9,3,3.94,3.96,3.8,3.91,3.88,3.71,3100,12.916667,62436.347667,0.096598,949.413391,-196.757278,1.89479781226023,2.46190566075977,2.14356319531346,14.826443,812.936523,154.185303,94.581604,1180.243286,-35.912151,"LATERAL"
237,17,20,36.401,5899.6,-0.372778,0.437083,-0.536245,0.618414,-0.92358,0.33854,-0.04091,5896.34,-0.076926,-0.773057,-0.038448,-0.628481,-0.96542,0.06013,0.19634,2.32,2.47,2.55,2.95,2.93,2.99,2.83,3.9,3,3.94,3.96,3.8,3.91,3.88,3.71,3113,12.970833,62436.401833,-0.20273,949.803345,-197.001343,1.89564015372301,2.46033172414281,2.14469377824095,14.800897,812.93103,154.213104,94.518631,1180.337891,-35.875347,"LATERAL"
238,17,20,36.407,5899.62,-0.372838,0.437105,-0.536308,0.618307,-0.92362,0.33733,-0.0403,5896.36,-0.077067,-0.773033,-0.038631,-0.628481,-0.96533,0.06255,0.19533,2.32,2.47,2.55,2.95,2.93,2.99,2.83,3.9,3,3.94,3.96,3.8,3.91,3.88,3.71,3115,12.979167,62436.410167,-0.250964,949.865784,-197.040573,1.89579023603845,2.46007421610722,2.14487048891659,14.799409,812.93103,154.219208,94.51255,1180.352051,-35.870636,"LATERAL"
239,17,20,36.417,5899.64,-0.372945,0.437096,-0.53638,0.618188,-0.92601,0.3365,-0.04074,5896.38,-0.077147,-0.773015,-0.038721,-0.628488,-0.9661,0.05969,0.19509,2.32,2.47,2.55,2.95,2.93,2.99,2.83,3.9,3,3.94,3.97,3.8,3.91,3.88,3.71,3117,12.9875,62436.4185,-0.300385,949.922852,-197.074326,1.89593709181486,2.45986971084305,2.14499243893216,14.801288,812.930969,154.22821,94.504318,1180.370605,-35.874191,"LATERAL"
240,17,20,36.437,5899.66,-0.372979,0.437116,-0.536463,0.61808,-0.92672,0.33651,-0.0421,5896.4,-0.077015,-0.773066,-0.039027,-0.628422,-0.96469,0.06046,0.19693,2.32,2.47,2.55,2.95,2.93,2.99,2.83,3.9,2.99,3.94,3.96,3.8,3.91,3.88,3.71,3122,13.008333,62436.439333,-0.423983,950.073608,-197.140182,1.89635864612507,2.45929041359298,2.14533401647371,14.799124,812.928894,154.253128,94.49649,1180.40625,-35.859657,"LATERAL"
241,17,20,36.456,5899.68,-0.373052,0.437132,-0.536508,0.617986,-0.92685,0.33674,-0.04211,5896.42,-0.077022,-0.773081,-0.03906,-0.628401,-0.96673,0.06259,0.1973,2.32,2.48,2.55,2.95,2.93,2.99,2.83,3.9,2.99,3.94,3.96,3.8,3.91,3.88,3.71,3126,13.025,62436.456,-0.518298,950.186035,-197.196075,1.89670476325652,2.45886504426644,2.14556035124459,14.805979,812.92572,154.262207,94.498146,1180.435791,-35.861454,"LATERAL"
242,17,20,36.461,5899.7,-0.373002,0.437186,-0.536636,0.617868,-0.92637,0.33554,-0.04328,5896.44,-0.077043,-0.773095,-0.039069,-0.62838,-0.96802,0.06273,0.19481,2.32,2.48,2.55,2.95,2.93,2.99,2.83,3.9,2.99,3.94,3.96,3.8,3.91,3.88,3.71,3128,13.033333,62436.464333,-0.561309,950.238098,-197.227859,1.89685034497678,2.45864409274765,2.14570059261595,14.810685,812.920715,154.264084,94.499161,1180.453979,-35.85305,"LATERAL"
243,17,20,36.493,5899.72,-0.373052,0.437196,-0.536642,0.617825,-0.92467,0.33643,-0.04211,5896.46,-0.076859,-0.773111,-0.039376,-0.628365,-0.97116,0.0624,0.19568,2.32,2.48,2.55,2.95,2.93,2.99,2.83,3.9,2.99,3.94,3.96,3.8,3.91,3.88,3.71,3135,13.0625,62436.4935,-0.678916,950.402588,-197.312119,1.8973112102934,2.45806671338149,2.14601338178389,14.82076,812.937378,154.278397,94.513824,1180.516846,-35.854813,"LATERAL"
244,17,20,36.514,5899.74,-0.373049,0.437233,-0.536629,0.617812,-0.9231,0.3365,-0.04314,5896.48,-0.076918,-0.773071,-0.039402,-0.628405,-0.96868,0.06236,0.19615,2.32,2.48,2.55,2.95,2.93,2.99,2.83,3.9,2.98,3.94,3.96,3.8,3.91,3.88,3.7,3140,13.083333,62436.514333,-0.752011,950.523132,-197.350677,1.89761082469256,2.4576525153716,2.14625822252741,14.820988,812.957153,154.301041,94.526649,1180.563843,-35.829521,"LATERAL"
245,17,20,36.518,5899.76,-0.373014,0.437373,-0.536712,0.617662,-0.92594,0.33308,-0.03985,5896.5,-0.076991,-0.773012,-0.039388,-0.628469,-0.96729,0.06487,0.19482,2.32,2.48,2.55,2.95,2.93,2.99,2.83,3.9,2.98,3.94,3.96,3.8,3.91,3.88,3.71,3141,13.0875,62436.5185,-0.767373,950.544495,-197.353119,1.89767284877026,2.45758863335799,2.14628544039702,14.824937,812.958069,154.301712,94.528778,1180.573364,-35.825089,"LATERAL"
246,17,20,36.553,5899.78,-0.373015,0.437408,-0.536719,0.61763,-0.92639,0.33402,-0.03845,5896.52,-0.077111,-0.773007,-0.03943,-0.628457,-0.96837,0.06538,0.19257,2.33,2.48,2.55,2.95,2.93,2.99,2.83,3.9,2.98,3.94,3.96,3.8,3.91,3.88,3.71,3150,13.125,62436.556,-0.88474,950.723145,-197.392868,1.8982183964473,2.45708690290789,2.1464600704736,14.846863,812.987976,154.316696,94.564514,1180.657349,-35.821739,"LATERAL"
247,17,20,36.579,5899.8,-0.372944,0.437504,-0.536865,0.617478,-0.92606,0.33491,-0.03884,5896.54,-0.077222,-0.772981,-0.03938,-0.62848,-0.96959,0.06395,0.19481,2.33,2.48,2.55,2.95,2.93,2.99,2.83,3.9,2.98,3.94,3.96,3.8,3.91,3.88,3.71,3156,13.15,62436.581,-0.941027,950.804321,-197.415741,1.8984428065115,2.4568745469566,2.14653818259662,14.872878,813.009399,154.337463,94.574104,1180.705444,-35.820404,"LATERAL"
248,17,20,36.584,5899.82,-0.373006,0.437505,-0.536907,0.617404,-0.92618,0.33641,-0.03767,5896.56,-0.077383,-0.772966,-0.039248,-0.628486,-0.9676,0.06709,0.19489,2.33,2.48,2.55,2.96,2.93,2.99,2.83,3.9,2.98,3.94,3.96,3.8,3.91,3.88,3.71,3157,13.154167,62436.585167,-0.947969,950.81427,-197.416153,1.89849444950992,2.45686074411445,2.14651853108875,14.879162,813.010986,154.338272,94.581001,1180.711182,-35.826847,"LATERAL"
249,17,20,36.636,5899.84,-0.373075,0.437486,-0.536949,0.617338,-0.92651,0.33629,-0.03716,5896.58,-0.077547,-0.773001,-0.039197,-0.628426,-0.96892,0.06914,0.19646,2.33,2.48,2.55,2.95,2.93,2.99,2.83,3.9,2.98,3.94,3.96,3.8,3.91,3.88,3.71,3170,13.208333,62436.639333,-0.941724,950.917114,-197.456085,1.89832287528826,2.45687747715665,2.14661504120264,14.967346,813.061584,154.36319,94.540642,1180.821045,-35.840027,"LATERAL"
250,17,20,36.641,5899.86,-0.373102,0.437537,-0.53707,0.61718,-0.92751,0.33515,-0.03924,5896.6,-0.077696,-0.773019,-0.039144,-0.628389,-0.96912,0.06234,0.1972,2.33,2.48,2.55,2.95,2.93,2.99,2.83,3.9,2.98,3.94,3.97,3.8,3.91,3.88,3.71,3171,13.2125,62436.6435,-0.933459,950.923584,-197.463547,1.89830435493369,2.45687649643905,2.1466284447041,14.971461,813.065552,154.361404,94.543221,1180.826172,-35.844967,"LATERAL"
251,17,20,36.646,5899.88,-0.373153,0.437533,-0.537115,0.617114,-0.9269,0.33442,-0.03843,5896.62,-0.077984,-0.773029,-0.039025,-0.628349,-0.96685,0.0629,0.19838,2.33,2.48,2.55,2.95,2.93,2.99,2.83,3.9,2.99,3.94,3.97,3.8,3.91,3.88,3.71,3172,13.216667,62436.647667,-0.920704,950.92926,-197.469711,1.89824485256079,2.45689985706596,2.14664306606729,14.977584,813.066833,154.363373,94.538422,1180.834229,-35.8489,"LATERAL"
252,17,20,36.69,5899.9,-0.373082,0.437548,-0.537238,0.617039,-0.92592,0.33777,-0.03624,5896.64,-0.078429,-0.773029,-0.038984,-0.628295,-0.9658,0.06576,0.1977,2.33,2.48,2.55,2.95,2.93,2.99,2.83,3.9,2.99,3.94,3.96,3.8,3.91,3.88,3.71,3183,13.2625,62436.6935,-0.816845,951.033875,-197.51532,1.89799760095146,2.45678977258266,2.14692592196757,15.059065,813.124207,154.388107,94.575745,1180.925293,-35.819099,"LATERAL"
253,17,20,36.695,5899.92,-0.373149,0.43752,-0.53723,0.617025,-0.92691,0.33726,-0.04421,5896.66,-0.078945,-0.772994,-0.038921,-0.628278,-0.96456,0.0652,0.19406,2.33,2.48,2.55,2.95,2.93,2.99,2.83,3.9,2.99,3.94,3.96,3.8,3.91,3.88,3.71,3184,13.266667,62436.697667,-0.803096,951.043457,-197.52095,1.89801103327291,2.45678492933657,2.14692216722879,15.069465,813.13031,154.39119,94.592659,1180.932495,-35.826698,"LATERAL"
254,17,20,36.715,5899.94,-0.373224,0.437505,-0.537209,0.617009,-0.92735,0.33555,-0.04196,5896.68,-0.079505,-0.772966,-0.038855,-0.628246,-0.96395,0.06055,0.19385,2.33,2.48,2.55,2.96,2.93,2.99,2.83,3.9,2.99,3.94,3.97,3.8,3.91,3.88,3.71,3189,13.2875,62436.7185,-0.743059,951.099365,-197.574905,1.89792536990184,2.45674606294442,2.14702090721265,15.117628,813.159119,154.407349,94.626785,1180.976685,-35.859188,"LATERAL"
255,17,20,36.72,5899.96,-0.373218,0.437675,-0.537403,0.616723,-0.9262,0.33353,-0.04056,5896.7,-0.080027,-0.772914,-0.038828,-0.628245,-0.96362,0.06042,0.19414,2.33,2.48,2.55,2.95,2.93,2.99,2.83,3.9,2.99,3.94,3.97,3.8,3.91,3.88,3.71,3190,13.291667,62436.722667,-0.726407,951.111267,-197.593567,1.89790793840916,2.45673741836445,2.14704178602344,15.125725,813.168213,154.407379,94.639793,1180.98999,-35.870525,"LATERAL"
256,17,20,36.772,5899.98,-0.373219,0.437667,-0.537385,0.616743,-0.92723,0.33456,-0.04189,5896.72,-0.08061,-0.772879,-0.03883,-0.628213,-0.96664,0.06201,0.19332,2.33,2.48,2.55,2.95,2.93,2.99,2.83,3.9,2.99,3.94,3.97,3.8,3.91,3.88,3.71,3202,13.341667,62436.772667,-0.544268,951.323853,-197.772614,1.89770821431739,2.45630462123489,2.14763873386403,15.258496,813.280945,154.393433,94.762672,1181.11377,-35.906338,"LATERAL"
257,17,20,36.778,5900,-0.372817,0.437797,-0.537744,0.616582,-0.92641,0.33766,-0.03913,5896.74,-0.081178,-0.772848,-0.038869,-0.628176,-0.96579,0.06227,0.19217,2.33,2.48,2.55,2.96,2.93,2.99,2.83,3.9,2.99,3.94,3.96,3.8,3.91,3.88,3.71,3204,13.35,62436.781,-0.502709,951.366333,-197.806335,1.8976583968688,2.45623958249835,2.14774158644044,15.278445,813.302185,154.388153,94.791245,1181.146484,-35.912746,"LATERAL"
258,17,20,36.795,5900.02,-0.372831,0.437789,-0.537724,0.616596,-0.92547,0.33697,-0.03803,5896.76,-0.081618,-0.772799,-0.038944,-0.628174,-0.96664,0.05974,0.19264,2.33,2.48,2.55,2.96,2.93,2.99,2.83,3.9,2.99,3.94,3.97,3.8,3.91,3.88,3.71,3208,13.366667,62436.797667,-0.42257,951.461548,-197.87619,1.89754004831793,2.45604374570467,2.14803017042344,15.326304,813.334412,154.369751,94.835304,1181.19812,-35.915604,"LATERAL"
259,17,20,36.8,5900.04,-0.372853,0.437777,-0.53766,0.616647,-0.92493,0.33763,-0.04027,5896.78,-0.082059,-0.772781,-0.03895,-0.628139,-0.96687,0.06255,0.19315,2.33,2.48,2.55,2.96,2.93,2.99,2.83,3.9,2.99,3.94,3.96,3.8,3.91,3.88,3.7,3209,13.370833,62436.801833,-0.40131,951.487427,-197.897079,1.89750916307156,2.45599244164598,2.14810567929172,15.33794,813.340515,154.363937,94.84697,1181.212158,-35.919266,"LATERAL"
260,17,20,36.855,5900.06,-0.372839,0.437768,-0.537569,0.616741,-0.92519,0.33459,-0.04081,5896.8,-0.082387,-0.77278,-0.039074,-0.628089,-0.96598,0.06234,0.19397,2.33,2.48,2.55,2.96,2.93,2.99,2.83,3.9,2.99,3.94,3.97,3.8,3.91,3.88,3.71,3222,13.425,62436.856,-0.067485,951.817749,-198.219696,1.89699824428574,2.45522878615765,2.14926291453424,15.44712,813.451111,154.332474,95.038033,1181.401001,-35.952728,"LATERAL"
261,17,20,36.86,5900.08,-0.372881,0.43773,-0.537489,0.616813,-0.92716,0.33433,-0.03927,5896.82,-0.082759,-0.77279,-0.039187,-0.628021,-0.96524,0.06405,0.19263,2.33,2.48,2.55,2.96,2.94,2.99,2.83,3.9,2.99,3.94,3.97,3.8,3.91,3.88,3.71,3223,13.429167,62436.860167,-0.039983,951.842651,-198.244522,1.89698499258402,2.4551687399335,2.1493360006297,15.458597,813.45752,154.330109,95.061836,1181.414673,-35.959347,"LATERAL"
262,17,20,36.877,5900.1,-0.372888,0.437703,-0.537446,0.616865,-0.92786,0.33653,-0.03941,5896.84,-0.083068,-0.772797,-0.039319,-0.627964,-0.96474,0.06374,0.19127,2.33,2.48,2.55,2.96,2.93,2.99,2.83,3.89,2.99,3.94,3.96,3.8,3.91,3.88,3.71,3228,13.45,62436.881,0.108851,951.983337,-198.365387,1.89680944541922,2.45483634534525,2.1498082225768,15.472646,813.491638,154.315231,95.159889,1181.48938,-35.965324,"LATERAL"
263,17,20,36.882,5900.12,-0.37297,0.437636,-0.537393,0.616909,-0.92686,0.33691,-0.03946,5896.86,-0.083148,-0.772767,-0.039525,-0.627977,-0.96544,0.06323,0.19102,2.33,2.48,2.55,2.96,2.93,2.99,2.83,3.9,2.99,3.94,3.96,3.8,3.91,3.88,3.71,3229,13.454167,62436.885167,0.137126,952.014526,-198.388153,1.89680440350041,2.45478130350448,2.14987048443537,15.47384,813.496826,154.307434,95.186562,1181.509766,-35.972939,"LATERAL"
264,17,20,36.935,5900.14,-0.373021,0.437612,-0.537294,0.616981,-0.92653,0.33582,-0.04091,5896.88,-0.083315,-0.772753,-0.039658,-0.627964,-0.96589,0.06559,0.1886,2.33,2.48,2.55,2.96,2.93,2.99,2.83,3.9,2.99,3.94,3.96,3.8,3.91,3.88,3.7,3241,13.504167,62436.935167,0.417684,952.375061,-198.619949,1.89652024110974,2.45396039609252,2.15093705035858,15.493505,813.567627,154.291504,95.385941,1181.712646,-35.942089,"LATERAL"
265,17,20,36.94,5900.16,-0.373063,0.437589,-0.537198,0.617056,-0.92702,0.3347,-0.04105,5896.9,-0.083334,-0.772638,-0.039831,-0.628092,-0.96854,0.06747,0.1872,2.33,2.48,2.55,2.96,2.93,2.99,2.83,3.9,2.99,3.94,3.97,3.8,3.91,3.88,3.7,3243,13.5125,62436.9435,0.460104,952.429443,-198.650742,1.89644398461829,2.45383440629054,2.15112224846933,15.494111,813.582642,154.286682,95.406158,1181.741455,-35.928219,"LATERAL"
266,17,20,36.957,5900.18,-0.373096,0.437553,-0.537131,0.617121,-0.92636,0.33604,-0.03857,5896.92,-0.083432,-0.77255,-0.039986,-0.628177,-0.96758,0.06737,0.18839,2.33,2.48,2.55,2.95,2.93,2.99,2.83,3.9,2.99,3.94,3.97,3.8,3.9,3.88,3.7,3247,13.529167,62436.960167,0.540707,952.536072,-198.703979,1.89633779273825,2.45358007890063,2.15146445576566,15.500143,813.595764,154.284042,95.456703,1181.799683,-35.896873,"LATERAL"
267,17,20,36.962,5900.2,-0.373031,0.437568,-0.537088,0.617187,-0.92444,0.33791,-0.04009,5896.94,-0.083431,-0.772464,-0.040006,-0.628282,-0.96722,0.06349,0.19139,2.33,2.48,2.55,2.95,2.93,2.99,2.83,3.9,2.99,3.94,3.97,3.8,3.91,3.88,3.7,3248,13.533333,62436.964333,0.561949,952.559937,-198.71553,1.89629985646485,2.45354574022829,2.1515262413861,15.50249,813.599487,154.28624,95.467758,1181.818237,-35.892269,"LATERAL"
268,17,20,36.993,5900.22,-0.373091,0.437532,-0.536987,0.617262,-0.92416,0.33616,-0.0387,5896.96,-0.083239,-0.772371,-0.040152,-0.628412,-0.96831,0.06573,0.19388,2.33,2.48,2.55,2.96,2.93,2.99,2.83,3.89,2.99,3.94,3.97,3.8,3.91,3.88,3.7,3255,13.5625,62436.9935,0.678109,952.719421,-198.796539,1.89605912541854,2.45324681975384,2.15200481097532,15.522512,813.625,154.28949,95.518753,1181.92749,-35.850204,"LATERAL"
269,17,20,37.018,5900.24,-0.37312,0.437517,-0.53688,0.61735,-0.92603,0.33524,-0.0414,5896.98,-0.083318,-0.772285,-0.040239,-0.628501,-0.9658,0.07465,0.19111,2.33,2.48,2.55,2.96,2.93,2.99,2.83,3.9,2.99,3.94,3.97,3.8,3.91,3.88,3.7,3261,13.5875,62437.0185,0.778185,952.828186,-198.844009,1.89589255537839,2.45302657785747,2.15235012949611,15.547894,813.650818,154.297379,95.572449,1181.99585,-35.811226,"LATERAL"
270,17,20,37.023,5900.26,-0.373098,0.437494,-0.536849,0.617406,-0.92678,0.33548,-0.04058,5897,-0.083265,-0.772119,-0.040332,-0.628707,-0.96701,0.07181,0.18952,2.33,2.48,2.55,2.96,2.93,2.99,2.83,3.89,2.99,3.94,3.97,3.8,3.91,3.88,3.7,3263,13.595833,62437.026833,0.804417,952.862549,-198.850159,1.89587091836886,2.45295975340171,2.15243582353702,15.561819,813.658936,154.300964,95.593643,1182.020142,-35.794323,"LATERAL"
271,17,20,37.057,5900.28,-0.373136,0.437464,-0.536767,0.617476,-0.92787,0.33568,-0.04098,5897.02,-0.083238,-0.772017,-0.040268,-0.628841,-0.96873,0.06757,0.19233,2.33,2.48,2.55,2.96,2.93,2.99,2.83,3.9,2.99,3.94,3.97,3.8,3.91,3.88,3.7,3271,13.629167,62437.060167,0.901019,952.980591,-198.852448,1.89573760126417,2.45278064036849,2.15271512399868,15.61003,813.686584,154.326172,95.652939,1182.104858,-35.727028,"LATERAL"
272,17,20,37.062,5900.3,-0.373027,0.43752,-0.536788,0.617483,-0.92449,0.33639,-0.04344,5897.04,-0.08323,-0.771932,-0.04018,-0.628951,-0.96725,0.07031,0.19181,2.33,2.48,2.55,2.96,2.93,2.99,2.83,3.9,2.99,3.94,3.97,3.8,3.91,3.88,3.7,3272,13.633333,62437.064333,0.912267,952.995972,-198.850418,1.89572915041903,2.45276339769765,2.15273911897476,15.616259,813.693542,154.333694,95.662903,1182.119629,-35.717167,"LATERAL"
273,17,20,37.098,5900.32,-0.37305,0.437463,-0.536645,0.617634,-0.92362,0.33613,-0.03955,5897.06,-0.083262,-0.771838,-0.040177,-0.629063,-0.96896,0.06893,0.19003,2.33,2.48,2.54,2.96,2.93,2.99,2.83,3.89,2.99,3.94,3.97,3.8,3.91,3.88,3.7,3281,13.670833,62437.101833,1.048192,953.131409,-198.839157,1.89548445933013,2.45264756927331,2.15302403839285,15.66164,813.744324,154.368469,95.726295,1182.224243,-35.641659,"LATERAL"
274,17,20,37.103,5900.34,-0.37306,0.437405,-0.536467,0.617824,-0.92869,0.3367,-0.04264,5897.08,-0.08346,-0.771729,-0.040117,-0.629173,-0.97049,0.0708,0.1872,2.33,2.48,2.54,2.96,2.93,2.99,2.83,3.89,2.98,3.94,3.97,3.8,3.91,3.88,3.7,3282,13.675,62437.106,1.066956,953.145935,-198.840225,1.89543878903936,2.45263645229009,2.15306597821787,15.671568,813.750244,154.375748,95.732323,1182.236938,-35.632141,"LATERAL"
275,17,20,37.138,5900.36,-0.373112,0.437391,-0.536383,0.617875,-0.92864,0.33512,-0.04028,5897.1,-0.083643,-0.771581,-0.040084,-0.629333,-0.96739,0.0682,0.1889,2.33,2.48,2.55,2.96,2.94,2.99,2.83,3.89,2.98,3.94,3.97,3.8,3.91,3.88,3.7,3290,13.708333,62437.139333,1.189454,953.285583,-198.84964,1.89531798748615,2.45243588639421,2.15335973534251,15.729472,813.807617,154.427368,95.815346,1182.325439,-35.578228,"LATERAL"
276,17,20,37.143,5900.38,-0.373252,0.437292,-0.5363,0.617933,-0.92669,0.33432,-0.04271,5897.12,-0.083825,-0.771466,-0.039925,-0.62946,-0.96387,0.06759,0.18937,2.33,2.48,2.55,2.96,2.93,2.99,2.83,3.9,2.98,3.94,3.97,3.8,3.91,3.88,3.69,3291,13.7125,62437.1435,1.205907,953.303955,-198.856628,1.89530695172771,2.45239082770585,2.15341512693554,15.737698,813.81604,154.435577,95.828148,1182.333984,-35.572433,"LATERAL"
277,17,20,37.174,5900.4,-0.373345,0.437221,-0.536218,0.617998,-0.925,0.33367,-0.04307,5897.14,-0.083917,-0.771381,-0.039674,-0.629567,-0.96701,0.0686,0.18947,2.33,2.48,2.55,2.96,2.94,2.99,2.83,3.89,2.98,3.94,3.97,3.8,3.91,3.88,3.7,3299,13.745833,62437.176833,1.326025,953.447693,-198.931778,1.89519752725811,2.45213322539593,2.15376222475111,15.792065,813.863586,154.459412,95.91304,1182.418335,-35.56926,"LATERAL"
278,17,20,37.179,5900.42,-0.373464,0.437132,-0.536114,0.61808,-0.92542,0.33378,-0.0441,5897.16,-0.083988,-0.77129,-0.039444,-0.629684,-0.96622,0.06956,0.18893,2.33,2.48,2.54,2.96,2.94,2.99,2.83,3.89,2.98,3.94,3.97,3.8,3.91,3.88,3.69,3300,13.75,62437.181,1.34557,953.465576,-198.944092,1.8951592738256,2.45209943632931,2.15382345540936,15.796988,813.869934,154.461273,95.920502,1182.426636,-35.568691,"LATERAL"
279,17,20,37.214,5900.44,-0.373577,0.437051,-0.536017,0.618153,-0.9266,0.33477,-0.04571,5897.18,-0.084157,-0.771238,-0.039223,-0.629739,-0.9694,0.06491,0.19174,2.33,2.48,2.55,2.96,2.94,2.99,2.83,3.89,2.98,3.94,3.97,3.8,3.91,3.88,3.69,3308,13.783333,62437.214333,1.508811,953.589905,-199.069244,1.89489922176878,2.45186375912535,2.15424594877277,15.840024,813.915405,154.448212,96.008881,1182.502319,-35.592159,"LATERAL"
280,17,20,37.219,5900.46,-0.373609,0.436985,-0.535917,0.618266,-0.92555,0.33501,-0.04693,5897.2,-0.084237,-0.771213,-0.03919,-0.629761,-0.96704,0.06693,0.1947,2.33,2.48,2.55,2.96,2.94,2.99,2.83,3.9,2.98,3.94,3.97,3.8,3.91,3.88,3.69,3310,13.791667,62437.222667,1.550897,953.621521,-199.104996,1.89482017348247,2.45181315464704,2.15435186957644,15.853186,813.925476,154.446213,96.028191,1182.523071,-35.602615,"LATERAL"
281,17,20,37.277,5900.48,-0.37371,0.436896,-0.535838,0.618337,-0.92547,0.33268,-0.04708,5897.22,-0.084394,-0.771164,-0.039017,-0.62981,-0.96776,0.06996,0.18947,2.33,2.48,2.55,2.96,2.94,2.99,2.83,3.9,2.98,3.94,3.97,3.8,3.91,3.88,3.69,3324,13.85,62437.281,1.824248,953.818665,-199.394424,1.89446752945255,2.45138858583358,2.15503633401796,15.920874,813.994873,154.359985,96.197502,1182.628296,-35.730972,"LATERAL"
282,17,20,37.282,5900.5,-0.37376,0.436803,-0.53577,0.618432,-0.92501,0.3343,-0.04789,5897.24,-0.084566,-0.771094,-0.03886,-0.629883,-0.96575,0.06953,0.19092,2.33,2.48,2.55,2.96,2.94,2.99,2.83,3.9,2.98,3.94,3.97,3.8,3.91,3.88,3.69,3325,13.854167,62437.285167,1.84256,953.834656,-199.417389,1.89442912821739,2.45133601360692,2.15511760022715,15.918238,813.997437,154.353241,96.204979,1182.634277,-35.733879,"LATERAL"
283,17,20,37.287,5900.52,-0.373848,0.43669,-0.535685,0.618531,-0.92576,0.33423,-0.04712,5897.26,-0.084751,-0.771041,-0.038895,-0.62992,-0.9634,0.06716,0.19181,2.33,2.48,2.55,2.96,2.94,2.99,2.83,3.9,2.98,3.94,3.97,3.8,3.91,3.88,3.69,3326,13.858333,62437.289333,1.860563,953.843445,-199.435867,1.8944253212229,2.45129935408565,2.15515921315537,15.928138,814.005249,154.342453,96.223358,1182.639648,-35.739548,"LATERAL"
284,17,20,37.332,5900.54,-0.373964,0.436576,-0.535597,0.618618,-0.92616,0.33493,-0.04715,5897.28,-0.084946,-0.770981,-0.038828,-0.629972,-0.96422,0.06702,0.19071,2.33,2.48,2.55,2.96,2.94,2.99,2.83,3.9,2.98,3.94,3.97,3.8,3.9,3.88,3.69,3337,13.904167,62437.335167,2.076588,953.989441,-199.672913,1.89426631477537,2.45086823311062,2.15572331595541,15.978374,814.057922,154.278961,96.397392,1182.710815,-35.832245,"LATERAL"
285,17,20,37.336,5900.56,-0.37403,0.436486,-0.535558,0.618675,-0.92507,0.33519,-0.04602,5897.3,-0.084858,-0.770922,-0.038956,-0.630048,-0.96034,0.06677,0.19041,2.33,2.48,2.55,2.96,2.93,2.99,2.83,3.9,2.98,3.94,3.97,3.8,3.9,3.88,3.69,3338,13.908333,62437.339333,2.0952,953.999146,-199.691483,1.89425338656366,2.45084417160051,2.15575744612986,15.981004,814.062805,154.27536,96.412506,1182.716309,-35.842129,"LATERAL"
286,17,20,37.357,5900.58,-0.374187,0.436369,-0.535474,0.618735,-0.92451,0.334,-0.04663,5897.32,-0.084962,-0.770872,-0.03889,-0.630099,-0.96598,0.0693,0.18996,2.33,2.48,2.55,2.96,2.93,2.99,2.83,3.9,2.99,3.94,3.97,3.8,3.91,3.88,3.69,3343,13.929167,62437.360167,2.191777,954.044373,-199.79689,1.8941729558,2.45067195877766,2.1559937751126,15.996984,814.088501,154.246216,96.487724,1182.732056,-35.886864,"LATERAL"
287,17,20,37.362,5900.6,-0.374277,0.436284,-0.535391,0.618813,-0.92566,0.33459,-0.0459,5897.34,-0.085155,-0.77081,-0.038874,-0.63015,-0.9658,0.06982,0.18898,2.33,2.48,2.55,2.96,2.93,2.99,2.83,3.89,2.99,3.94,3.97,3.8,3.91,3.88,3.69,3344,13.933333,62437.364333,2.209078,954.052002,-199.817383,1.89417037943509,2.4506430730686,2.15602626906263,15.999291,814.095459,154.238281,96.506477,1182.739502,-35.895535,"LATERAL"
288,17,20,37.414,5900.62,-0.374305,0.436237,-0.535278,0.618926,-0.92571,0.33616,-0.04438,5897.36,-0.085285,-0.770705,-0.038981,-0.630254,-0.96786,0.0696,0.18696,2.33,2.48,2.55,2.96,2.94,2.99,2.83,3.9,2.99,3.94,3.97,3.8,3.9,3.88,3.68,3356,13.983333,62437.414333,2.405408,954.110107,-200.005722,1.89416122947342,2.4504447867809,2.15624372508567,16.060711,814.156616,154.179321,96.707191,1182.776978,-36.017986,"LATERAL"
289,17,20,37.419,5900.64,-0.374391,0.436157,-0.535185,0.619012,-0.92627,0.33568,-0.04517,5897.38,-0.085424,-0.770597,-0.038999,-0.630367,-0.96797,0.0674,0.18673,2.33,2.48,2.55,2.96,2.94,2.99,2.83,3.9,2.99,3.94,3.97,3.8,3.9,3.88,3.69,3358,13.991667,62437.422667,2.430722,954.104675,-200.019058,1.89419064352548,2.45047964511167,2.15618730676524,16.064371,814.164734,154.171524,96.739799,1182.775757,-36.046986,"LATERAL"
