Sample,Hour,Minute,Sec,Stamp,Quat1,Quat2,Quat3,Quat4,AccX,AccY,AccZ,Stamp2,Quat2_1,Quat2_2,Quat2_3,Quat2_4,Acc2_X,Acc2_Y,Acc2_Z,A0,A1,A2,A3,A4,A5,A6,A7,A8,A9,A10,A11,A12,A13,A14,Frame,Time,realTime,BrazoX,BrazoY,BrazoZ,angBrazoX,angBrazoY,angBrazoZ,EspaldaX,EspaldaY,EspaldaZ,refX,refY,refZ,type
2,17,23,27.206,6070.3,-0.413341,0.38417,-0.568082,0.599037,-0.90988,0.36257,-0.06419,6067.04,-0.04091,-0.723846,-0.006128,-0.688721,-0.98954,0.03563,0.0479,2.33,2.48,2.59,2.9,2.97,3.03,2.84,3.9,3.02,3.94,4,3.81,3.9,3.87,3.73,2125,8.854167,62607.208167,96.075417,935.894897,-240.568054,1.69962895538403,2.50267968827889,2.19237433464374,48.768177,822.884583,123.022446,134.846573,1178.144043,-64.838135,"COMBO"
3,17,23,27.221,6070.32,-0.413396,0.384076,-0.568043,0.599096,-0.91075,0.36272,-0.0625,6067.06,-0.040884,-0.723924,-0.006331,-0.688638,-0.99022,0.04217,0.04684,2.34,2.48,2.59,2.9,2.97,3.02,2.84,3.9,3.02,3.94,4,3.82,3.89,3.87,3.73,2129,8.870833,62607.224833,96.109077,935.971313,-240.557007,1.69944005401856,2.50243819323517,2.19266932258342,48.72023,822.873657,123.041054,134.82251,1178.169556,-64.760124,"COMBO"
4,17,23,27.233,6070.34,-0.413434,0.384016,-0.567984,0.599165,-0.91396,0.36527,-0.06522,6067.08,-0.040864,-0.72395,-0.006408,-0.688612,-0.98776,0.04663,0.04328,2.34,2.48,2.59,2.9,2.97,3.02,2.84,3.9,3.02,3.94,4,3.82,3.89,3.87,3.73,2131,8.879167,62607.233167,96.124641,936.004272,-240.553207,1.69934476621818,2.50232800351163,2.19280633018325,48.708157,822.852295,123.044937,134.809937,1178.185059,-64.720993,"COMBO"
5,17,23,27.245,6070.36,-0.413439,0.383925,-0.567994,0.59921,-0.91684,0.3653,-0.06295,6067.1,-0.040615,-0.723958,-0.006332,-0.688619,-0.98703,0.04417,0.04122,2.34,2.48,2.58,2.9,2.97,3.02,2.84,3.9,3.02,3.94,4,3.82,3.89,3.87,3.73,2134,8.891667,62607.245667,96.128479,936.061157,-240.543045,1.69924575480403,2.50213111200785,2.193031974125,48.674637,822.834534,123.065323,134.783157,1178.200317,-64.659981,"COMBO"
6,17,23,27.252,6070.38,-0.413426,0.383926,-0.567925,0.599284,-0.91486,0.3622,-0.06524,6067.12,-0.040457,-0.723987,-0.006147,-0.688599,-0.98469,0.04051,0.04229,2.34,2.48,2.59,2.9,2.97,3.02,2.84,3.9,3.02,3.94,4,3.82,3.89,3.87,3.73,2136,8.9,62607.254,96.127274,936.095093,-240.541687,1.69916401012812,2.50197804660161,2.19320864976128,48.651016,822.828125,123.072556,134.758575,1178.213501,-64.610352,"COMBO"
7,17,23,27.259,6070.4,-0.413345,0.38391,-0.567942,0.599334,-0.90986,0.36155,-0.06335,6067.14,-0.04041,-0.724048,-0.005979,-0.688539,-0.98671,0.0422,0.03986,2.34,2.48,2.59,2.9,2.97,3.02,2.84,3.9,3.02,3.94,4,3.82,3.89,3.87,3.73,2138,8.908333,62607.262333,96.120689,936.12384,-240.526413,1.69909770534402,2.50188469266757,2.19332080010913,48.63401,822.814331,123.093933,134.731781,1178.223145,-64.569244,"COMBO"
8,17,23,27.264,6070.42,-0.413338,0.383934,-0.567861,0.5994,-0.91253,0.36297,-0.06473,6067.16,-0.040252,-0.724003,-0.005766,-0.688597,-0.99104,0.04318,0.03702,2.34,2.48,2.59,2.9,2.97,3.03,2.84,3.9,3.02,3.94,4,3.82,3.89,3.87,3.73,2139,8.9125,62607.2665,96.110359,936.147095,-240.521317,1.69910097666471,2.50179944660701,2.1934061086172,48.626606,822.806824,123.105675,134.723312,1178.236572,-64.539215,"COMBO"
9,17,23,27.272,6070.44,-0.413325,0.383972,-0.567797,0.599445,-0.91774,0.36199,-0.06395,6067.18,-0.040215,-0.723994,-0.005512,-0.68861,-0.9879,0.04569,0.0415,2.34,2.48,2.59,2.91,2.97,3.02,2.84,3.9,3.02,3.94,4,3.82,3.89,3.87,3.72,2141,8.920833,62607.274833,96.095749,936.170776,-240.506073,1.69905375900249,2.50171056016752,2.19350861861134,48.604633,822.799255,123.12027,134.694321,1178.242676,-64.499977,"COMBO"
10,17,23,27.281,6070.46,-0.413419,0.384001,-0.567778,0.59938,-0.91682,0.35965,-0.06203,6067.2,-0.040262,-0.724003,-0.005301,-0.688601,-0.98551,0.04534,0.04574,2.34,2.48,2.59,2.9,2.97,3.02,2.84,3.9,3.02,3.94,4,3.82,3.89,3.87,3.73,2143,8.929167,62607.283167,96.078087,936.196167,-240.471939,1.69900640784901,2.50162524346988,2.19360754855003,48.58823,822.784668,123.1399,134.662155,1178.25061,-64.443108,"COMBO"
11,17,23,27.286,6070.48,-0.413515,0.383968,-0.567765,0.599347,-0.91471,0.3603,-0.06191,6067.22,-0.040342,-0.724007,-0.005001,-0.688593,-0.98577,0.04288,0.04778,2.34,2.48,2.59,2.9,2.97,3.03,2.84,3.9,3.02,3.94,4,3.82,3.89,3.87,3.72,2144,8.933333,62607.287333,96.068054,936.209839,-240.460922,1.6989968336693,2.50159106670918,2.19364466275694,48.569458,822.780334,123.15078,134.649246,1178.258057,-64.423042,"COMBO"
12,17,23,27.292,6070.5,-0.413515,0.383957,-0.567852,0.599272,-0.91591,0.36084,-0.06505,6067.24,-0.040483,-0.723992,-0.004709,-0.688604,-0.98492,0.04218,0.04756,2.34,2.48,2.59,2.9,2.97,3.02,2.84,3.9,3.02,3.94,4,3.82,3.89,3.87,3.73,2146,8.941667,62607.295667,96.042442,936.238037,-240.436005,1.69896374588039,2.50150956856162,2.19373590816187,48.552624,822.769897,123.165794,134.613037,1178.267212,-64.378929,"COMBO"
13,17,23,27.297,6070.52,-0.413602,0.383943,-0.567858,0.599214,-0.91684,0.36136,-0.06149,6067.26,-0.040588,-0.723992,-0.004623,-0.688598,-0.98308,0.04063,0.04722,2.34,2.48,2.59,2.9,2.97,3.03,2.84,3.9,3.02,3.94,4,3.81,3.89,3.87,3.73,2147,8.945833,62607.299833,96.022484,936.246765,-240.419418,1.69898613874477,2.50148049175717,2.19375931232446,48.541599,822.768066,123.177879,134.599731,1178.270386,-64.356834,"COMBO"
14,17,23,27.312,6070.54,-0.413676,0.383926,-0.567883,0.599151,-0.91394,0.36152,-0.0624,6067.28,-0.040765,-0.723937,-0.004466,-0.688646,-0.983,0.04061,0.04776,2.34,2.48,2.59,2.9,2.97,3.03,2.84,3.9,3.02,3.94,4,3.82,3.89,3.87,3.73,2150,8.958333,62607.312333,95.97467,936.281921,-240.378052,1.69896648820932,2.50137827939374,2.19386790189435,48.513371,822.748657,123.203033,134.54512,1178.281372,-64.293037,"COMBO"
15,17,23,27.323,6070.56,-0.413716,0.38389,-0.567953,0.59908,-0.9141,0.36131,-0.06341,6067.3,-0.040894,-0.723876,-0.004437,-0.688703,-0.98439,0.04257,0.0451,2.34,2.48,2.59,2.9,2.97,3.02,2.84,3.9,3.02,3.94,4,3.82,3.89,3.87,3.73,2153,8.970833,62607.324833,95.91877,936.313599,-240.333771,1.69893867953538,2.50126579879112,2.19398905145891,48.491337,822.731567,123.229454,134.481415,1178.296021,-64.216705,"COMBO"
16,17,23,27.351,6070.58,-0.413779,0.383877,-0.568023,0.598979,-0.91296,0.3614,-0.06335,6067.32,-0.04109,-0.723807,-0.004346,-0.688764,-0.98457,0.04286,0.04297,2.34,2.48,2.59,2.91,2.97,3.02,2.84,3.9,3.02,3.94,4,3.81,3.89,3.87,3.72,2160,9,62607.354,95.778107,936.378662,-240.213791,1.69882145331,2.50107931393029,2.19420890649286,48.436996,822.66394,123.311401,134.305618,1178.327148,-64.043083,"COMBO"
17,17,23,27.356,6070.6,-0.413768,0.383815,-0.568103,0.59895,-0.91387,0.3637,-0.06205,6067.34,-0.041232,-0.723741,-0.004253,-0.688826,-0.98462,0.04027,0.04293,2.34,2.48,2.59,2.9,2.97,3.03,2.84,3.9,3.02,3.94,4,3.82,3.89,3.87,3.73,2161,9.004167,62607.358167,95.755653,936.384583,-240.193176,1.6988136865525,2.50107600672513,2.19421432463483,48.430393,822.651978,123.32254,134.281158,1178.334473,-64.019684,"COMBO"
18,17,23,27.392,6070.62,-0.413801,0.383829,-0.568143,0.59888,-0.9153,0.36304,-0.06152,6067.36,-0.04119,-0.723641,-0.004292,-0.688933,-0.98451,0.04211,0.04229,2.34,2.48,2.59,2.9,2.97,3.03,2.84,3.9,3.02,3.94,4,3.82,3.89,3.87,3.73,2170,9.041667,62607.395667,95.58017,936.420898,-240.041656,1.69865474077221,2.50094977571759,2.19438436160378,48.35643,822.586914,123.395706,134.058472,1178.350342,-63.824818,"COMBO"
19,17,23,27.397,6070.64,-0.413833,0.38386,-0.568182,0.598802,-0.91584,0.36182,-0.05978,6067.38,-0.041256,-0.723593,-0.004289,-0.68898,-0.97916,0.04637,0.04412,2.34,2.48,2.59,2.91,2.97,3.02,2.84,3.9,3.02,3.94,4,3.82,3.89,3.87,3.72,2171,9.045833,62607.399833,95.561455,936.423523,-240.022812,1.6986517973493,2.50096498627443,2.19436977116627,48.340977,822.576416,123.404053,134.037964,1178.349976,-63.813725,"COMBO"
20,17,23,27.431,6070.66,-0.413867,0.38392,-0.568213,0.59871,-0.91532,0.36093,-0.06147,6067.4,-0.041104,-0.723551,-0.004552,-0.689031,-0.98127,0.04456,0.04189,2.34,2.48,2.59,2.91,2.97,3.03,2.84,3.9,3.02,3.94,4,3.82,3.89,3.87,3.73,2179,9.079167,62607.433167,95.397804,936.401123,-239.884094,1.69858778201037,2.50104695031537,2.19430399187647,48.278534,822.53186,123.459167,133.856888,1178.353271,-63.683174,"COMBO"
21,17,23,27.453,6070.68,-0.413853,0.384,-0.568244,0.598639,-0.91452,0.36107,-0.0609,6067.42,-0.041167,-0.723551,-0.004632,-0.689026,-0.98356,0.0433,0.03948,2.33,2.48,2.59,2.9,2.97,3.03,2.84,3.9,3.02,3.94,4,3.82,3.89,3.87,3.73,2184,9.1,62607.454,95.311798,936.386475,-239.797485,1.69854472054519,2.50112159509096,2.19424001841367,48.246281,822.49939,123.477119,133.75824,1178.353638,-63.611107,"COMBO"
22,17,23,27.458,6070.7,-0.413806,0.384097,-0.568301,0.598555,-0.91548,0.36152,-0.06041,6067.44,-0.041199,-0.723547,-0.004724,-0.689028,-0.9871,0.04316,0.04079,2.34,2.48,2.59,2.9,2.97,3.03,2.84,3.9,3.02,3.94,4,3.82,3.89,3.87,3.72,2185,9.104167,62607.458167,95.290482,936.384277,-239.780487,1.6985392051217,2.50111880277433,2.19424431134758,48.241959,822.494995,123.48082,133.735489,1178.352295,-63.592068,"COMBO"
23,17,23,27.492,6070.72,-0.413821,0.384155,-0.56836,0.598451,-0.91588,0.36018,-0.06114,6067.46,-0.041122,-0.72354,-0.004942,-0.689038,-0.98568,0.04721,0.04309,2.33,2.48,2.59,2.91,2.97,3.03,2.84,3.9,3.02,3.94,4,3.82,3.89,3.87,3.73,2194,9.141667,62607.495667,95.131912,936.387573,-239.65448,1.69867099611244,2.50121279803222,2.19411414302369,48.195248,822.463379,123.509377,133.615204,1178.365234,-63.503273,"COMBO"
24,17,23,27.497,6070.74,-0.413838,0.384206,-0.568424,0.598346,-0.91661,0.3591,-0.0587,6067.48,-0.041182,-0.72356,-0.00508,-0.689013,-0.98617,0.05038,0.04199,2.33,2.48,2.59,2.91,2.97,3.03,2.84,3.9,3.02,3.94,4,3.82,3.89,3.87,3.73,2195,9.145833,62607.499833,95.110252,936.389893,-239.644836,1.69870154205319,2.50123030996011,2.19408828767296,48.183559,822.467468,123.518311,133.603058,1178.373047,-63.498264,"COMBO"
25,17,23,27.532,6070.76,-0.413811,0.384287,-0.568519,0.598223,-0.91631,0.35999,-0.05858,6067.5,-0.041273,-0.723557,-0.005179,-0.689011,-0.98655,0.05094,0.04306,2.33,2.48,2.59,2.91,2.97,3.03,2.84,3.9,3.02,3.94,4,3.82,3.89,3.87,3.73,2203,9.179167,62607.533167,94.956398,936.424316,-239.596298,1.69893796386733,2.50117978604709,2.19407619580933,48.173126,822.445801,123.521675,133.520172,1178.399658,-63.451744,"COMBO"
26,17,23,27.537,6070.78,-0.413791,0.384347,-0.56852,0.598196,-0.91614,0.36101,-0.05765,6067.52,-0.041435,-0.723609,-0.005325,-0.688945,-0.98507,0.04947,0.04021,2.33,2.48,2.59,2.91,2.97,3.03,2.84,3.9,3.02,3.94,4,3.82,3.89,3.87,3.73,2204,9.183333,62607.537333,94.940132,936.429688,-239.592346,1.6989838193296,2.50114123569828,2.19410290275671,48.167553,822.442505,123.521225,133.51796,1178.400146,-63.439743,"COMBO"
27,17,23,27.571,6070.8,-0.413733,0.384464,-0.568573,0.598112,-0.91675,0.36168,-0.05967,6067.54,-0.041628,-0.72364,-0.005419,-0.6889,-0.98635,0.04752,0.03789,2.33,2.48,2.59,2.9,2.97,3.03,2.84,3.9,3.02,3.94,4,3.82,3.89,3.87,3.73,2213,9.220833,62607.574833,94.829773,936.492493,-239.583481,1.69905764134453,2.50094795051088,2.19427854825836,48.174698,822.428284,123.505394,133.430145,1178.430908,-63.385792,"COMBO"
28,17,23,27.591,6070.82,-0.413695,0.384544,-0.568579,0.59808,-0.91675,0.35955,-0.05723,6067.56,-0.041718,-0.723594,-0.005398,-0.688943,-0.98547,0.04693,0.03945,2.33,2.48,2.59,2.91,2.97,3.03,2.84,3.9,3.02,3.94,4,3.82,3.89,3.87,3.73,2217,9.2375,62607.5915,94.78595,936.529358,-239.6026,1.69905895243805,2.50082367906884,2.19440382645451,48.174774,822.430542,123.497665,133.386688,1178.44519,-63.37434,"COMBO"
29,17,23,27.595,6070.84,-0.413679,0.384592,-0.568605,0.598036,-0.9171,0.36023,-0.05584,6067.58,-0.041885,-0.723588,-0.005379,-0.688939,-0.98547,0.04919,0.04048,2.33,2.48,2.59,2.91,2.97,3.03,2.84,3.9,3.02,3.94,4,3.82,3.89,3.87,3.72,2218,9.241667,62607.595667,94.781395,936.534851,-239.605453,1.69906726521369,2.5008051914108,2.19442029135656,48.179256,822.425842,123.492188,133.384491,1178.446533,-63.373753,"COMBO"
30,17,23,27.632,6070.86,-0.413559,0.384668,-0.568767,0.597916,-0.916,0.3606,-0.05699,6067.6,-0.041984,-0.723535,-0.00534,-0.688989,-0.98486,0.04754,0.0411,2.33,2.48,2.59,2.91,2.97,3.03,2.84,3.9,3.02,3.94,4,3.82,3.89,3.87,3.73,2227,9.279167,62607.633167,94.709656,936.615967,-239.657394,1.69921304267179,2.50046372020669,2.19472645979993,48.168518,822.431885,123.483482,133.356934,1178.469482,-63.348183,"COMBO"
31,17,23,27.637,6070.88,-0.41356,0.384686,-0.568799,0.597873,-0.9167,0.35897,-0.05514,6067.62,-0.042178,-0.723521,-0.005228,-0.688993,-0.98298,0.04414,0.04065,2.33,2.48,2.59,2.9,2.97,3.03,2.84,3.9,3.02,3.94,4,3.82,3.89,3.87,3.73,2228,9.283333,62607.637333,94.705238,936.623474,-239.660751,1.69920212686616,2.50044404983949,2.19474926870662,48.169506,822.43219,123.485634,133.349319,1178.473877,-63.345634,"COMBO"
32,17,23,27.68,6070.9,-0.413528,0.384766,-0.568835,0.59781,-0.91713,0.36007,-0.05812,6067.64,-0.042344,-0.723513,-0.005105,-0.688992,-0.98371,0.04309,0.04054,2.33,2.48,2.59,2.91,2.97,3.03,2.84,3.9,3.02,3.94,4,3.82,3.89,3.87,3.73,2239,9.329167,62607.683167,94.667542,936.683716,-239.694626,1.69940344761265,2.50006911034437,2.19507434405093,48.162106,822.427002,123.496704,133.37178,1178.46582,-63.300343,"COMBO"
33,17,23,27.685,6070.92,-0.413502,0.384813,-0.568821,0.597811,-0.91622,0.3604,-0.05826,6067.66,-0.042343,-0.723448,-0.005028,-0.689061,-0.98178,0.04372,0.03969,2.33,2.48,2.59,2.91,2.97,3.03,2.84,3.9,3.02,3.94,4,3.82,3.89,3.87,3.72,2240,9.333333,62607.687333,94.665352,936.685547,-239.692474,1.69941076047016,2.50006280653636,2.19507875539175,48.162514,822.426208,123.492409,133.371277,1178.463379,-63.299397,"COMBO"
34,17,23,27.712,6070.94,-0.413523,0.384825,-0.568821,0.597788,-0.91612,0.36157,-0.05797,6067.68,-0.042455,-0.723442,-0.004891,-0.689061,-0.98357,0.04375,0.03922,2.34,2.48,2.59,2.91,2.97,3.03,2.84,3.9,3.02,3.94,4,3.82,3.89,3.87,3.73,2246,9.358333,62607.712333,94.688889,936.69397,-239.693939,1.69940043099384,2.49997984681157,2.19516539086896,48.177113,822.429565,123.49836,133.391815,1178.457397,-63.279228,"COMBO"
35,17,23,27.719,6070.96,-0.41347,0.384833,-0.568895,0.59775,-0.91603,0.36196,-0.06119,6067.7,-0.042354,-0.723399,-0.004844,-0.689113,-0.98621,0.04293,0.03756,2.33,2.48,2.59,2.91,2.97,3.03,2.84,3.9,3.02,3.94,4,3.82,3.89,3.87,3.73,2248,9.366667,62607.720667,94.698906,936.697449,-239.696625,1.69936004279631,2.49992276864957,2.19523392041086,48.185539,822.424438,123.496048,133.390564,1178.455688,-63.261398,"COMBO"
36,17,23,27.752,6070.98,-0.413497,0.384835,-0.568869,0.597755,-0.91424,0.35981,-0.06023,6067.72,-0.04241,-0.723392,-0.004732,-0.689117,-0.98973,0.0434,0.03744,2.33,2.48,2.59,2.91,2.97,3.03,2.84,3.9,3.02,3.94,4,3.82,3.89,3.87,3.73,2256,9.4,62607.754,94.791786,936.739014,-239.681702,1.69922163656295,2.499807093926,2.19538793558846,48.202927,822.424622,123.485275,133.440979,1178.469849,-63.21352,"COMBO"
37,17,23,27.757,6071,-0.413433,0.384737,-0.568939,0.597795,-0.91511,0.35983,-0.05811,6067.74,-0.042422,-0.723412,-0.004613,-0.689097,-0.98772,0.04318,0.03866,2.33,2.48,2.59,2.91,2.97,3.03,2.84,3.9,3.02,3.94,4,3.82,3.89,3.87,3.72,2257,9.404167,62607.758167,94.807495,936.748535,-239.680908,1.69923019355719,2.49978780790767,2.19540513980337,48.206791,822.425842,123.487648,133.458557,1178.471558,-63.211674,"COMBO"
38,17,23,27.792,6071.02,-0.413445,0.384767,-0.568899,0.597806,-0.9156,0.36204,-0.0568,6067.76,-0.042212,-0.723444,-0.004787,-0.689075,-0.98635,0.04286,0.04314,2.33,2.48,2.59,2.9,2.97,3.03,2.84,3.9,3.02,3.94,4,3.82,3.89,3.87,3.73,2266,9.441667,62607.795667,94.902206,936.794922,-239.639603,1.69929491965272,2.49968051775139,2.19549625963409,48.2491,822.421265,123.471161,133.571854,1178.493652,-63.151649,"COMBO"
39,17,23,27.797,6071.04,-0.413442,0.384784,-0.568845,0.597848,-0.91738,0.36121,-0.05673,6067.78,-0.042168,-0.723492,-0.004749,-0.689028,-0.97949,0.04492,0.04332,2.33,2.48,2.59,2.91,2.97,3.03,2.84,3.9,3.02,3.94,4,3.82,3.89,3.87,3.73,2267,9.445833,62607.799833,94.908905,936.787354,-239.633957,1.69930396973412,2.49968501298158,2.195489290991,48.254356,822.427612,123.476242,133.58078,1178.483887,-63.149906,"COMBO"
40,17,23,27.833,6071.06,-0.413381,0.384833,-0.568885,0.597821,-0.91638,0.36101,-0.05607,6067.8,-0.042038,-0.723483,-0.004703,-0.689045,-0.97374,0.04811,0.04129,2.33,2.48,2.59,2.91,2.97,3.03,2.84,3.9,3.02,3.94,4,3.82,3.89,3.87,3.73,2275,9.479167,62607.833167,95.012161,936.692566,-239.590271,1.69937977397239,2.4999163795704,2.19523508930889,48.268295,822.441772,123.476349,133.706314,1178.428345,-63.170307,"COMBO"
41,17,23,27.841,6071.08,-0.413382,0.384871,-0.568866,0.597814,-0.91624,0.35887,-0.05777,6067.82,-0.04206,-0.723587,-0.004827,-0.688933,-0.97355,0.04963,0.03292,2.33,2.48,2.59,2.91,2.97,3.03,2.84,3.9,3.02,3.94,4,3.82,3.89,3.87,3.73,2277,9.4875,62607.8415,95.064804,936.657959,-239.586197,1.6993109541647,2.50003721971622,2.19513137935616,48.278358,822.444336,123.467079,133.739059,1178.419922,-63.188442,"COMBO"
42,17,23,27.872,6071.1,-0.413392,0.384877,-0.568892,0.597779,-0.91628,0.3607,-0.05861,6067.84,-0.042023,-0.723671,-0.004822,-0.688847,-0.98568,0.04164,0.02307,2.33,2.48,2.59,2.91,2.97,3.03,2.84,3.9,3.02,3.94,4,3.82,3.89,3.87,3.73,2285,9.520833,62607.874833,95.456375,936.578064,-239.627411,1.69831699636483,2.50017695180124,2.19525549112514,48.300926,822.443848,123.426796,133.835815,1178.38208,-63.186996,"COMBO"
43,17,23,27.877,6071.12,-0.413441,0.384876,-0.568894,0.597743,-0.91579,0.36138,-0.05763,6067.86,-0.041546,-0.723559,-0.004516,-0.688997,-0.99986,0.03521,0.0272,2.33,2.48,2.59,2.91,2.97,3.03,2.84,3.9,3.02,3.94,4,3.82,3.89,3.87,3.73,2286,9.525,62607.879,95.519569,936.579346,-239.625656,1.69814033221291,2.50017750827795,2.19530187880033,48.296066,822.444763,123.424889,133.846024,1178.382813,-63.174358,"COMBO"
44,17,23,27.911,6071.14,-0.41351,0.384859,-0.56888,0.597719,-0.91541,0.36297,-0.05859,6067.88,-0.041057,-0.723498,-0.003969,-0.689093,-1.00356,0.03359,0.04468,2.33,2.48,2.59,2.91,2.97,3.03,2.84,3.9,3.02,3.94,4,3.82,3.89,3.87,3.73,2294,9.558333,62607.912333,95.881302,936.65863,-239.535706,1.6973236885102,2.49992689371505,2.19577132003914,48.309647,822.427368,123.440689,133.962296,1178.410522,-62.97411,"COMBO"
45,17,23,27.916,6071.2,-0.413793,0.384609,-0.568965,0.597604,-0.91668,0.35779,-0.05978,6067.9,-0.040933,-0.723635,-0.003778,-0.688958,-0.99186,0.04949,0.06264,2.33,2.48,2.59,2.91,2.97,3.03,2.84,3.9,3.02,3.94,4,3.82,3.89,3.87,3.73,2295,9.5625,62607.9165,95.90136,936.67981,-239.522095,1.69728828945708,2.49983199529796,2.19587655508061,48.315701,822.423645,123.4506,133.97139,1178.412231,-62.936447,"COMBO"
46,17,23,27.951,6071.22,-0.413917,0.384534,-0.568972,0.597559,-0.91237,0.36155,-0.05941,6067.92,-0.040894,-0.723643,-0.003709,-0.688952,-0.97595,0.05814,0.06733,2.33,2.48,2.59,2.91,2.97,3.03,2.84,3.9,3.02,3.94,4,3.82,3.89,3.87,3.73,2304,9.6,62607.954,95.879868,936.721375,-239.367523,1.69758552143105,2.49967008942813,2.19596168903297,48.328747,822.432617,123.547401,134.040131,1178.432495,-62.755234,"COMBO"
47,17,23,27.957,6071.24,-0.414,0.384522,-0.568984,0.597498,-0.91206,0.36436,-0.0587,6067.94,-0.040992,-0.723723,-0.003717,-0.688863,-0.9747,0.04925,0.05613,2.33,2.48,2.59,2.91,2.97,3.03,2.84,3.9,3.02,3.94,4.01,3.82,3.89,3.87,3.73,2305,9.604167,62607.958167,95.874016,936.728271,-239.354721,1.69759150838824,2.49963763816745,2.1959929004206,48.328426,822.429993,123.557373,134.035889,1178.432373,-62.735638,"COMBO"
48,17,23,27.992,6071.26,-0.413906,0.384463,-0.569049,0.59754,-0.91387,0.36576,-0.06102,6067.96,-0.040834,-0.723732,-0.003831,-0.688861,-0.98493,0.0377,0.04654,2.33,2.48,2.59,2.91,2.97,3.03,2.84,3.9,3.02,3.94,4,3.82,3.89,3.87,3.72,2314,9.641667,62607.995667,95.797646,936.743835,-239.183914,1.69758605366777,2.49942819645659,2.19620599334958,48.343788,822.428772,123.66523,133.959015,1178.417236,-62.507465,"COMBO"
49,17,23,27.997,6071.28,-0.413939,0.384537,-0.568956,0.597558,-0.91823,0.36403,-0.06042,6067.98,-0.040788,-0.72366,-0.003566,-0.688941,-0.99327,0.03699,0.04259,2.33,2.48,2.59,2.9,2.97,3.03,2.84,3.9,3.02,3.94,4,3.82,3.89,3.87,3.73,2315,9.645833,62607.999833,95.792793,936.747375,-239.162247,1.6976154582152,2.49939434982882,2.19623242478264,48.348225,822.431885,123.675545,133.963989,1178.421143,-62.47459,"COMBO"
50,17,23,28.032,6071.3,-0.413951,0.384623,-0.568954,0.597495,-0.91638,0.35859,-0.05988,6068,-0.040744,-0.723593,-0.003261,-0.689016,-0.98687,0.05153,0.04304,2.33,2.48,2.59,2.91,2.97,3.03,2.84,3.9,3.02,3.94,4,3.82,3.89,3.87,3.73,2323,9.679167,62608.033167,95.710213,936.799438,-239.01387,1.69779318629999,2.4992246505665,2.19635690368877,48.378994,822.450256,123.754211,133.934921,1178.444458,-62.294346,"COMBO"
51,17,23,28.037,6071.32,-0.413999,0.384686,-0.568869,0.597503,-0.9157,0.35765,-0.05777,6068.02,-0.040813,-0.723587,-0.003131,-0.689018,-0.97552,0.06124,0.04461,2.33,2.48,2.59,2.91,2.97,3.03,2.84,3.9,3.02,3.94,4,3.82,3.89,3.87,3.73,2324,9.683333,62608.037333,95.699463,936.806458,-239.006866,1.69782677207499,2.49919393052951,2.19637905759769,48.383476,822.453796,123.762016,133.934631,1178.448486,-62.280048,"COMBO"
52,17,23,28.071,6071.34,-0.413982,0.384803,-0.568767,0.597537,-0.91767,0.36011,-0.05661,6068.04,-0.041138,-0.723635,-0.003135,-0.688949,-0.97996,0.05572,0.04175,2.33,2.48,2.59,2.91,2.97,3.03,2.84,3.9,3.02,3.94,4,3.82,3.89,3.87,3.73,2333,9.720833,62608.074833,95.638046,936.861206,-238.976303,1.69779290078928,2.49896903495127,2.19661529161395,48.420849,822.466553,123.764198,133.867645,1178.491455,-62.170555,"COMBO"
53,17,23,28.076,6071.36,-0.413947,0.384956,-0.568738,0.597489,-0.91884,0.35962,-0.05661,6068.06,-0.041435,-0.723646,-0.003143,-0.68892,-0.98938,0.04402,0.03625,2.33,2.48,2.59,2.91,2.97,3.02,2.84,3.9,3.02,3.94,4,3.82,3.89,3.87,3.73,2334,9.725,62608.079,95.637863,936.869751,-238.97258,1.69774322736895,2.49893791333034,2.19665988368878,48.424812,822.465332,123.764732,133.852997,1178.496948,-62.154037,"COMBO"
54,17,23,28.112,6071.38,-0.413977,0.385061,-0.568689,0.597448,-0.92032,0.35331,-0.05526,6068.08,-0.041712,-0.723639,-0.003051,-0.68891,-0.99479,0.04236,0.04046,2.33,2.48,2.59,2.91,2.97,3.03,2.84,3.9,3.02,3.94,4,3.82,3.89,3.87,3.72,2342,9.758333,62608.112333,95.63913,936.995728,-238.956848,1.69747459653122,2.49852036525675,2.19715278557461,48.427284,822.446411,123.762512,133.775391,1178.557251,-62.010509,"COMBO"
55,17,23,28.121,6071.4,-0.414047,0.385237,-0.568699,0.597276,-0.91704,0.3535,-0.05758,6068.1,-0.04198,-0.723748,-0.003128,-0.688779,-0.98575,0.04623,0.04834,2.33,2.48,2.59,2.9,2.97,3.03,2.84,3.9,3.02,3.94,4,3.82,3.9,3.87,3.73,2345,9.770833,62608.124833,95.600372,937.041321,-238.936081,1.69759024727918,2.49838918424687,2.19725480569444,48.418419,822.441895,123.768898,133.770569,1178.574707,-61.96801,"COMBO"
56,17,23,28.151,6071.42,-0.414085,0.385274,-0.56871,0.597216,-0.9149,0.35549,-0.06055,6068.12,-0.042208,-0.723781,-0.003145,-0.688731,-0.97478,0.05071,0.05491,2.33,2.48,2.59,2.91,2.97,3.03,2.84,3.9,3.02,3.94,4,3.82,3.89,3.87,3.73,2352,9.8,62608.154,95.415939,937.070862,-238.887436,1.69811601094817,2.49828293186372,2.19722303074294,48.383125,822.437988,123.761032,133.743744,1178.586182,-61.926277,"COMBO"
57,17,23,28.156,6071.44,-0.414091,0.385334,-0.568739,0.597145,-0.91588,0.35754,-0.06046,6068.14,-0.042539,-0.72387,-0.003343,-0.688615,-0.97236,0.05331,0.05387,2.33,2.48,2.59,2.91,2.97,3.03,2.84,3.9,3.02,3.94,4,3.82,3.89,3.87,3.73,2353,9.804167,62608.158167,95.383133,937.065369,-238.887115,1.69820275050225,2.49828449690368,2.19719843909873,48.374458,822.435913,123.769012,133.737503,1178.584717,-61.929226,"COMBO"
58,17,23,28.192,6071.46,-0.414118,0.385368,-0.56877,0.597075,-0.91765,0.35775,-0.0614,6068.16,-0.04288,-0.723985,-0.003615,-0.688472,-0.97947,0.04696,0.04632,2.33,2.48,2.59,2.91,2.97,3.03,2.84,3.9,3.02,3.94,4,3.82,3.89,3.87,3.73,2362,9.841667,62608.195667,95.116371,937,-238.864349,1.69874872548161,2.49836316667586,2.19697373585642,48.290195,822.411865,123.774048,133.635681,1178.542847,-61.954636,"COMBO"
59,17,23,28.197,6071.48,-0.414157,0.385384,-0.568803,0.597006,-0.91832,0.35726,-0.06072,6068.18,-0.043077,-0.724072,-0.003732,-0.688368,-0.98356,0.04313,0.04124,2.33,2.48,2.59,2.91,2.97,3.03,2.84,3.9,3.02,3.94,4,3.82,3.89,3.87,3.73,2363,9.845833,62608.199833,95.089119,936.988037,-238.865631,1.69878021158903,2.49839161495628,2.19693659143025,48.280064,822.409241,123.780853,133.617599,1178.534424,-61.966183,"COMBO"
60,17,23,28.231,6071.5,-0.41425,0.385347,-0.568754,0.597012,-0.91666,0.35726,-0.06287,6068.2,-0.042873,-0.72395,-0.003726,-0.688509,-0.98295,0.04752,0.03917,2.33,2.48,2.59,2.91,2.97,3.03,2.84,3.9,3.02,3.94,4,3.82,3.89,3.87,3.73,2371,9.879167,62608.233167,94.9049,936.866577,-238.859589,1.69900640958907,2.49869634404639,2.19656823999216,48.212666,822.374329,123.7798,133.500305,1178.463135,-62.053902,"COMBO"
61,17,23,28.237,6071.52,-0.41425,0.385357,-0.568773,0.596988,-0.91441,0.35801,-0.05774,6068.22,-0.042832,-0.723958,-0.00378,-0.688503,-0.97937,0.0515,0.04077,2.33,2.48,2.59,2.9,2.98,3.03,2.84,3.9,3.02,3.94,4,3.82,3.89,3.87,3.72,2372,9.883333,62608.237333,94.870079,936.84375,-238.859406,1.69906823716197,2.49875145867311,2.19649601394191,48.204769,822.37439,123.77253,133.484741,1178.454956,-62.06797,"COMBO"
62,17,23,28.271,6071.54,-0.414244,0.385318,-0.568786,0.597005,-0.91565,0.35821,-0.05866,6068.24,-0.042873,-0.723984,-0.003929,-0.688473,-0.98326,0.0485,0.03997,2.33,2.48,2.59,2.9,2.98,3.03,2.84,3.9,3.02,3.94,4,3.82,3.89,3.87,3.73,2381,9.920833,62608.274833,94.68885,936.645386,-238.844223,1.69907678755761,2.49945035465199,2.19578729941597,48.159325,822.339661,123.759254,133.303818,1178.368896,-62.236546,"COMBO"
63,17,23,28.276,6071.56,-0.414164,0.385355,-0.568919,0.59691,-0.91734,0.35856,-0.05676,6068.26,-0.042795,-0.723952,-0.004194,-0.688509,-0.98758,0.04497,0.04211,2.33,2.48,2.59,2.9,2.97,3.03,2.84,3.9,3.02,3.94,4,3.82,3.89,3.87,3.72,2382,9.925,62608.279,94.672295,936.625671,-238.842621,1.69904467822076,2.49953472925901,2.19571059798843,48.153194,822.339172,123.751617,133.277252,1178.361938,-62.255543,"COMBO"
64,17,23,28.311,6071.58,-0.414152,0.385348,-0.568969,0.596875,-0.91743,0.35641,-0.05498,6068.28,-0.04279,-0.723943,-0.004409,-0.688517,-0.98943,0.04642,0.04194,2.33,2.48,2.59,2.91,2.98,3.03,2.84,3.9,3.02,3.94,4,3.82,3.89,3.87,3.73,2390,9.958333,62608.312333,94.262283,936.716858,-239.149765,1.699848632472,2.49871439546921,2.1963242808676,48.155888,822.326416,123.725258,133.110443,1178.320557,-62.400936,"COMBO"
65,17,23,28.317,6071.6,-0.414035,0.385375,-0.569057,0.596854,-0.91734,0.35852,-0.05549,6068.3,-0.042733,-0.723933,-0.004621,-0.68853,-0.98875,0.04918,0.04177,2.33,2.48,2.59,2.9,2.98,3.03,2.84,3.9,3.02,3.94,4,3.82,3.89,3.87,3.73,2392,9.966667,62608.320667,94.4832,936.457092,-238.832092,1.69901231113881,2.50026633444648,2.19497971872612,48.160591,822.325562,123.719849,133.076874,1178.315552,-62.431263,"COMBO"
66,17,23,28.352,6071.62,-0.413938,0.385413,-0.569079,0.596876,-0.91671,0.35995,-0.05385,6068.32,-0.042734,-0.723921,-0.00484,-0.688541,-0.9888,0.04979,0.04093,2.33,2.48,2.59,2.91,2.97,3.03,2.84,3.9,3.02,3.94,4,3.82,3.89,3.87,3.73,2400,10,62608.354,93.854134,935.951355,-238.766602,1.70058701253239,2.50138677253079,2.19342305199257,48.155689,822.335632,123.693581,132.965012,1178.296143,-62.540611,"COMBO"
67,17,23,28.361,6071.64,-0.413869,0.385433,-0.569093,0.596898,-0.91882,0.35897,-0.0545,6068.34,-0.042763,-0.723924,-0.005104,-0.688534,-0.9884,0.04667,0.04236,2.33,2.48,2.59,2.91,2.98,3.03,2.84,3.9,3.02,3.94,4,3.82,3.89,3.87,3.73,2402,10.008333,62608.362333,94.30603,936.346863,-238.809097,1.69914230502012,2.50083767524068,2.1943673640552,48.158989,822.331482,123.682289,132.937393,1178.300781,-62.563866,"COMBO"
68,17,23,28.392,6071.66,-0.413813,0.385438,-0.569095,0.596932,-0.91767,0.35869,-0.05664,6068.36,-0.042748,-0.723921,-0.005377,-0.688536,-0.98617,0.04637,0.04243,2.33,2.48,2.59,2.91,2.98,3.03,2.84,3.9,3.02,3.94,4,3.82,3.89,3.87,3.73,2410,10.041667,62608.395667,93.933578,936.506592,-239.131561,1.70002761508985,2.49970136394007,2.19527833861417,48.16824,822.327271,123.670006,132.833908,1178.280029,-62.645168,"COMBO"
69,17,23,28.397,6071.68,-0.413761,0.385459,-0.569092,0.596956,-0.91753,0.35897,-0.05523,6068.38,-0.042751,-0.723908,-0.005516,-0.688548,-0.98462,0.04742,0.04241,2.33,2.48,2.59,2.91,2.98,3.03,2.84,3.9,3.02,3.94,4,3.82,3.89,3.87,3.73,2411,10.045833,62608.399833,94.187302,936.281311,-238.830582,1.69916841152305,2.50111955929106,2.19407540100965,48.168438,822.330872,123.665993,132.82489,1178.276123,-62.664143,"COMBO"
70,17,23,28.432,6071.7,-0.413622,0.385473,-0.569204,0.596937,-0.9135,0.35931,-0.05699,6068.4,-0.042592,-0.723782,-0.005523,-0.68869,-0.98476,0.04797,0.03993,2.33,2.48,2.59,2.9,2.98,3.03,2.84,3.9,3.02,3.94,4,3.82,3.89,3.87,3.73,2419,10.079167,62608.433167,93.840988,936.431885,-239.168671,1.70000599402195,2.49995478927515,2.19502794847058,48.167568,822.323364,123.652573,132.735413,1178.254639,-62.741028,"COMBO"
71,17,23,28.44,6071.72,-0.41355,0.38551,-0.569188,0.596979,-0.916,0.35873,-0.05572,6068.42,-0.042618,-0.723742,-0.005554,-0.688731,-0.98844,0.0481,0.03953,2.33,2.48,2.59,2.9,2.97,3.03,2.84,3.9,3.02,3.94,4,3.82,3.89,3.87,3.73,2421,10.0875,62608.4415,93.819717,936.421692,-239.172379,1.69998516364476,2.50000808946393,2.19497967292307,48.16087,822.328613,123.653908,132.708115,1178.255371,-62.755615,"COMBO"
72,17,23,28.473,6071.74,-0.41351,0.385516,-0.569151,0.597038,-0.91622,0.35903,-0.05765,6068.44,-0.042685,-0.723681,-0.005582,-0.688791,-0.98842,0.04785,0.04089,2.33,2.48,2.59,2.91,2.98,3.03,2.84,3.9,3.02,3.94,4,3.82,3.89,3.87,3.73,2429,10.120833,62608.474833,93.765701,936.408997,-239.23555,1.69991987863946,2.50005755431098,2.19494724648898,48.159897,822.319702,123.637642,132.634827,1178.253296,-62.8255,"COMBO"
73,17,23,28.478,6071.76,-0.413379,0.385516,-0.569193,0.597088,-0.91682,0.36058,-0.05811,6068.46,-0.042713,-0.723598,-0.005629,-0.688876,-0.9858,0.04595,0.04327,2.33,2.48,2.59,2.91,2.98,3.03,2.84,3.9,3.02,3.94,4,3.82,3.89,3.87,3.73,2430,10.125,62608.479,93.759766,936.399658,-239.240662,1.69986222053672,2.50006888789136,2.19495131020681,48.156132,822.315613,123.636887,132.612274,1178.25,-62.826702,"COMBO"
74,17,23,28.511,6071.78,-0.413332,0.385534,-0.569149,0.597151,-0.91577,0.3584,-0.05756,6068.48,-0.042787,-0.723555,-0.005557,-0.688917,-0.9841,0.04534,0.04224,2.33,2.48,2.59,2.9,2.98,3.03,2.84,3.9,3.02,3.94,4,3.82,3.89,3.87,3.73,2438,10.158333,62608.512333,93.723061,936.397034,-239.325119,1.69979469649295,2.50004650376911,2.19499210958848,48.134579,822.313965,123.616997,132.557053,1178.253906,-62.893452,"COMBO"
75,17,23,28.516,6071.8,-0.413343,0.385536,-0.569084,0.597204,-0.916,0.35882,-0.05828,6068.5,-0.042747,-0.723477,-0.005548,-0.689002,-0.98509,0.04569,0.04056,2.33,2.48,2.59,2.91,2.98,3.03,2.84,3.9,3.02,3.94,4,3.82,3.89,3.87,3.73,2439,10.1625,62608.5165,93.725304,936.403381,-239.333466,1.6997759539427,2.50004684967972,2.19499680133679,48.136211,822.31012,123.610184,132.553146,1178.256958,-62.903099,"COMBO"
76,17,23,28.551,6071.82,-0.413296,0.385546,-0.569098,0.597217,-0.91694,0.35854,-0.0568,6068.52,-0.042855,-0.723449,-0.005478,-0.689025,-0.98512,0.0445,0.04058,2.33,2.48,2.59,2.9,2.98,3.03,2.84,3.9,3.02,3.94,4,3.82,3.89,3.87,3.73,2448,10.2,62608.554,93.721199,936.414063,-239.406586,1.69969826568852,2.50001517982872,2.19504970770935,48.101246,822.311646,123.586014,132.526535,1178.266602,-62.959843,"COMBO"
77,17,23,28.556,6071.84,-0.413276,0.38554,-0.569107,0.597226,-0.91575,0.35829,-0.05732,6068.54,-0.042951,-0.723429,-0.005431,-0.68904,-0.98523,0.04276,0.03938,2.33,2.48,2.59,2.91,2.98,3.03,2.84,3.9,3.02,3.94,4,3.82,3.89,3.87,3.73,2449,10.204167,62608.558167,93.72287,936.416382,-239.41217,1.69971196801389,2.50001194686669,2.19504929279343,48.084488,822.312622,123.591286,132.53154,1178.26355,-62.969021,"COMBO"
78,17,23,28.592,6071.86,-0.413275,0.385511,-0.569112,0.59724,-0.91647,0.35927,-0.05814,6068.56,-0.04275,-0.723324,-0.005519,-0.689162,-0.98546,0.04288,0.03983,2.33,2.48,2.59,2.91,2.98,3.03,2.84,3.9,3.02,3.94,4,3.82,3.9,3.87,3.73,2458,10.241667,62608.595667,93.755424,936.429382,-239.467438,1.69965222043245,2.50001276275981,2.19506452589378,48.067081,822.310425,123.572342,132.546448,1178.278198,-63.019463,"COMBO"
79,17,23,28.601,6071.88,-0.413299,0.385474,-0.569105,0.597255,-0.91649,0.36006,-0.05709,6068.58,-0.042738,-0.723318,-0.005442,-0.68917,-0.98425,0.04433,0.04218,2.33,2.48,2.59,2.91,2.98,3.03,2.84,3.9,3.02,3.94,4,3.82,3.9,3.87,3.73,2460,10.25,62608.604,93.759071,936.440613,-239.480865,1.69966498303722,2.49998053189294,2.19509368052122,48.057594,822.306213,123.567863,132.554184,1178.285278,-63.024529,"COMBO"
80,17,23,28.633,6071.9,-0.41329,0.385472,-0.569138,0.597231,-0.91675,0.36047,-0.05554,6068.6,-0.042597,-0.72332,-0.005548,-0.689175,-0.9868,0.04473,0.04255,2.33,2.48,2.59,2.91,2.98,3.03,2.84,3.9,3.02,3.94,4,3.81,3.9,3.87,3.73,2467,10.279167,62608.633167,93.788284,936.471985,-239.482895,1.69962517499049,2.50000355707957,2.19508109877768,48.042461,822.312012,123.56826,132.570969,1178.317627,-63.031963,"COMBO"
81,17,23,28.642,6071.92,-0.413293,0.385469,-0.569116,0.597252,-0.91596,0.36058,-0.05624,6068.62,-0.042636,-0.72335,-0.005554,-0.689142,-0.98863,0.04252,0.03978,2.33,2.48,2.59,2.91,2.98,3.03,2.84,3.9,3.02,3.94,4,3.82,3.9,3.87,3.73,2470,10.291667,62608.645667,93.805443,936.494507,-239.484009,1.69961657807265,2.49999124937782,2.19509585068643,48.045231,822.311707,123.566902,132.586136,1178.341553,-63.026817,"COMBO"
82,17,23,28.673,6071.94,-0.413281,0.385461,-0.56909,0.59729,-0.91514,0.36006,-0.05511,6068.64,-0.042685,-0.723378,-0.005589,-0.689109,-0.98818,0.0418,0.04016,2.33,2.48,2.59,2.91,2.98,3.03,2.84,3.9,3.02,3.94,4,3.82,3.89,3.87,3.73,2477,10.320833,62608.674833,93.838417,936.554382,-239.47113,1.69957050403745,2.50001234317921,2.19508690035249,48.052357,822.312927,123.572655,132.604187,1178.398193,-63.021271,"COMBO"
83,17,23,28.678,6071.96,-0.413138,0.385417,-0.569139,0.59737,-0.91593,0.36166,-0.05627,6068.66,-0.042627,-0.723426,-0.005874,-0.68906,-0.98533,0.04353,0.0426,2.33,2.48,2.59,2.91,2.98,3.03,2.84,3.9,3.02,3.94,4,3.82,3.9,3.87,3.73,2478,10.325,62608.679,93.832573,936.560059,-239.461838,1.69959726000018,2.49999542764465,2.19509681555629,48.058456,822.317078,123.573921,132.605698,1178.396729,-63.012531,"COMBO"
84,17,23,28.712,6071.98,-0.413135,0.385417,-0.569085,0.597424,-0.9167,0.36227,-0.05695,6068.68,-0.042646,-0.723432,-0.005909,-0.689052,-0.98392,0.04457,0.043,2.33,2.48,2.59,2.9,2.98,3.03,2.84,3.91,3.02,3.94,4,3.82,3.9,3.87,3.73,2486,10.358333,62608.712333,93.854279,936.59967,-239.410858,1.69958311299043,2.50007716470693,2.19501798302829,48.058842,822.334351,123.60598,132.623062,1178.450439,-62.981346,"COMBO"
85,17,23,28.721,6072,-0.413053,0.385398,-0.569099,0.597479,-0.91551,0.36166,-0.05722,6068.7,-0.042611,-0.723445,-0.006048,-0.68904,-0.98422,0.04393,0.04293,2.33,2.48,2.59,2.9,2.98,3.03,2.84,3.9,3.02,3.94,4,3.82,3.9,3.87,3.73,2489,10.370833,62608.724833,93.853081,936.614197,-239.385391,1.69958404276203,2.50008280403354,2.19501203222964,48.062351,822.332092,123.62075,132.622253,1178.466675,-62.956833,"COMBO"
86,17,23,28.75,6072.02,-0.413047,0.385417,-0.56904,0.597528,-0.91586,0.35976,-0.05661,6068.72,-0.042699,-0.723451,-0.00614,-0.689027,-0.98455,0.04602,0.04133,2.33,2.48,2.59,2.91,2.98,3.03,2.84,3.9,3.02,3.94,4,3.82,3.89,3.87,3.73,2496,10.4,62608.754,93.861824,936.642944,-239.341537,1.69960149171587,2.50016512065217,2.19492412687865,48.08128,822.332092,123.654503,132.636703,1178.513306,-62.932312,"COMBO"
87,17,23,28.772,6072.04,-0.413049,0.385442,-0.568959,0.597588,-0.91541,0.36199,-0.05777,6068.74,-0.042805,-0.723418,-0.006236,-0.689054,-0.98514,0.04527,0.04088,2.33,2.48,2.59,2.91,2.98,3.03,2.84,3.9,3.02,3.94,4,3.82,3.9,3.87,3.73,2501,10.420833,62608.774833,93.891365,936.667297,-239.323151,1.69952603011673,2.50015186832782,2.1949577890351,48.081196,822.330261,123.676895,132.643616,1178.535034,-62.905849,"COMBO"
88,17,23,28.777,6072.06,-0.413,0.38547,-0.568905,0.597654,-0.9157,0.36074,-0.05633,6068.76,-0.042762,-0.723351,-0.006232,-0.689126,-0.98438,0.04668,0.04095,2.33,2.48,2.59,2.9,2.98,3.03,2.84,3.9,3.02,3.94,4,3.82,3.89,3.87,3.73,2502,10.425,62608.779,93.90686,936.678711,-239.318298,1.69948959648015,2.50011895156254,2.19500084558974,48.079441,822.345032,123.683784,132.647934,1178.538818,-62.891678,"COMBO"
89,17,23,28.812,6072.08,-0.412983,0.38551,-0.568809,0.597732,-0.91617,0.36053,-0.05814,6068.78,-0.042686,-0.723348,-0.006048,-0.689137,-0.98615,0.03995,0.04234,2.33,2.48,2.59,2.9,2.98,3.03,2.84,3.9,3.02,3.94,4,3.82,3.89,3.87,3.73,2510,10.458333,62608.812333,93.97123,936.728088,-239.277023,1.69947848265758,2.50008017013273,2.1950430336955,48.071762,822.334167,123.712364,132.709229,1178.582764,-62.838921,"COMBO"
90,17,23,28.817,6072.1,-0.412978,0.385531,-0.568721,0.597805,-0.91771,0.3576,-0.05854,6068.8,-0.042668,-0.723353,-0.005952,-0.689133,-0.98664,0.04715,0.04058,2.33,2.48,2.59,2.9,2.98,3.03,2.84,3.9,3.02,3.94,4,3.82,3.89,3.87,3.73,2512,10.466667,62608.820667,93.982895,936.741882,-239.27507,1.69953214127514,2.50006337270381,2.19504561261443,48.067516,822.337585,123.725952,132.736603,1178.591309,-62.837952,"COMBO"
91,17,23,28.853,6072.12,-0.413004,0.385538,-0.568648,0.597853,-0.91656,0.35901,-0.05919,6068.82,-0.042764,-0.723369,-0.006021,-0.68911,-0.98357,0.05266,0.03784,2.33,2.48,2.59,2.91,2.98,3.03,2.84,3.9,3.02,3.94,4,3.82,3.9,3.87,3.73,2520,10.5,62608.854,94.366348,936.57959,-238.997162,1.69867920811071,2.50137974565048,2.19394318571062,48.050694,822.342712,123.736107,132.860046,1178.637329,-62.851475,"COMBO"
92,17,23,28.859,6072.14,-0.412976,0.385577,-0.568602,0.597891,-0.91572,0.35824,-0.05755,6068.84,-0.042797,-0.723429,-0.005972,-0.689045,-0.98415,0.05003,0.0373,2.33,2.48,2.59,2.91,2.98,3.03,2.84,3.9,3.03,3.94,4,3.82,3.9,3.87,3.73,2522,10.508333,62608.862333,94.406639,936.591003,-239.018799,1.69865908148336,2.50133374057537,2.19399506356747,48.046246,822.354248,123.732971,132.894806,1178.643555,-62.858135,"COMBO"
93,17,23,28.892,6072.16,-0.412982,0.385571,-0.568537,0.597952,-0.91403,0.35917,-0.05952,6068.86,-0.042586,-0.72346,-0.005806,-0.689027,-0.98138,0.04368,0.03973,2.33,2.48,2.59,2.91,2.98,3.03,2.84,3.9,3.02,3.94,4,3.82,3.9,3.87,3.73,2530,10.541667,62608.895667,94.616135,936.621887,-239.119553,1.69828587988546,2.50121773668502,2.1942117718005,48.011642,822.370361,123.714409,132.99382,1178.661377,-62.900059,"COMBO"
94,17,23,28.897,6072.18,-0.41299,0.385577,-0.568447,0.598028,-0.91847,0.35965,-0.05706,6068.88,-0.042522,-0.723495,-0.005628,-0.688996,-0.98226,0.04405,0.04143,2.33,2.48,2.59,2.91,2.98,3.03,2.84,3.9,3.02,3.94,4,3.82,3.9,3.87,3.73,2531,10.545833,62608.899833,94.641945,936.617981,-239.127792,1.69827184671555,2.50125621234106,2.19417661370428,48.01231,822.371826,123.705147,133.015625,1178.665649,-62.916012,"COMBO"
95,17,23,28.929,6072.2,-0.413094,0.385573,-0.5684,0.598004,-0.92032,0.35747,-0.05594,6068.9,-0.042366,-0.723514,-0.005568,-0.688986,-0.98605,0.04538,0.03809,2.33,2.48,2.59,2.9,2.98,3.03,2.84,3.9,3.02,3.93,4,3.82,3.89,3.87,3.73,2538,10.575,62608.929,94.838295,936.627869,-239.203964,1.69802216036061,2.50126756293244,2.19423150317245,47.989502,822.381653,123.66832,133.138672,1178.686768,-62.972046,"COMBO"
96,17,23,28.951,6072.22,-0.413208,0.38548,-0.568385,0.597999,-0.9176,0.35676,-0.05835,6068.92,-0.042243,-0.723569,-0.005383,-0.688937,-0.98708,0.04476,0.04197,2.33,2.48,2.59,2.91,2.98,3.03,2.84,3.9,3.02,3.94,4,3.82,3.9,3.87,3.73,2544,10.6,62608.954,94.994072,936.652649,-239.254715,1.69781121595397,2.50126381042511,2.19429126023461,47.969879,822.407654,123.655899,133.232224,1178.716797,-63.003838,"COMBO"
97,17,23,28.96,6072.24,-0.413294,0.385381,-0.568401,0.597988,-0.91584,0.35775,-0.05743,6068.94,-0.042163,-0.723581,-0.005236,-0.68893,-0.98788,0.0447,0.0452,2.33,2.48,2.59,2.91,2.98,3.03,2.84,3.9,3.02,3.94,4,3.82,3.9,3.87,3.73,2546,10.608333,62608.962333,95.032227,936.658875,-239.264877,1.69777635084837,2.50125924612514,2.19430511434197,47.973045,822.40979,123.652031,133.260956,1178.728638,-63.005917,"COMBO"
98,17,23,28.992,6072.26,-0.413378,0.385318,-0.568445,0.59793,-0.91678,0.35995,-0.05683,6068.96,-0.04206,-0.72365,-0.005239,-0.688864,-0.99123,0.04403,0.04775,2.33,2.48,2.59,2.9,2.98,3.03,2.84,3.9,3.02,3.94,4,3.82,3.9,3.87,3.73,2554,10.641667,62608.995667,95.164368,936.770447,-239.290115,1.69756658420163,2.50099017716054,2.19463259977386,47.985466,822.424866,123.673637,133.33197,1178.802368,-62.943115,"COMBO"
99,17,23,28.997,6072.28,-0.413463,0.385229,-0.568448,0.597925,-0.91556,0.36098,-0.05774,6068.98,-0.042034,-0.723651,-0.005063,-0.688866,-0.99292,0.04265,0.04926,2.33,2.48,2.59,2.91,2.98,3.03,2.84,3.9,3.02,3.94,4,3.82,3.9,3.87,3.73,2555,10.645833,62608.999833,95.16925,936.790283,-239.281052,1.69757926616266,2.50094336108838,2.19467656029734,47.98595,822.423767,123.680977,133.339874,1178.808838,-62.926865,"COMBO"
100,17,23,29.033,6072.3,-0.413435,0.38513,-0.568477,0.59798,-0.91612,0.36135,-0.05767,6069,-0.042034,-0.723709,-0.005245,-0.688804,-0.98992,0.0414,0.05118,2.33,2.48,2.59,2.91,2.98,3.03,2.84,3.9,3.02,3.94,4,3.82,3.89,3.87,3.73,2563,10.679167,62609.033167,95.125565,936.931824,-239.220215,1.69753779191819,2.50061383644648,2.19502056154403,47.98473,822.446655,123.758804,133.284668,1178.896606,-62.777599,"COMBO"
101,17,23,29.041,6072.32,-0.413466,0.385106,-0.568381,0.598065,-0.91321,0.3656,-0.05971,6069.02,-0.042138,-0.723607,-0.005184,-0.688906,-0.98267,0.03993,0.05366,2.33,2.48,2.59,2.91,2.98,3.03,2.84,3.9,3.02,3.94,4,3.82,3.89,3.87,3.73,2565,10.6875,62609.0415,95.090324,936.952454,-239.186371,1.69755573044923,2.500592115541,2.19503777016697,47.985226,822.444153,123.778214,133.254166,1178.909302,-62.742466,"COMBO"
102,17,23,29.071,6072.34,-0.413474,0.385146,-0.56827,0.598141,-0.91335,0.36419,-0.06154,6069.04,-0.042289,-0.723538,-0.005194,-0.688968,-0.97825,0.04382,0.0494,2.33,2.48,2.59,2.91,2.98,3.03,2.84,3.9,3.02,3.94,4,3.82,3.9,3.87,3.73,2573,10.720833,62609.074833,94.936783,937.04657,-239.065216,1.6977640983543,2.500402321979,2.19517444306226,47.961258,822.424805,123.856308,133.162399,1178.96521,-62.59071,"COMBO"
103,17,23,29.076,6072.36,-0.413427,0.385212,-0.568211,0.598186,-0.91584,0.36124,-0.05824,6069.06,-0.042425,-0.723502,-0.005311,-0.688997,-0.98089,0.04504,0.04278,2.33,2.48,2.59,2.91,2.98,3.03,2.84,3.91,3.02,3.94,4,3.82,3.89,3.87,3.73,2574,10.725,62609.079,94.924103,937.056519,-239.054153,1.69777701130219,2.50037816718694,2.19519543526749,47.9561,822.424438,123.870514,133.153976,1178.973267,-62.572704,"COMBO"
104,17,23,29.112,6072.38,-0.413402,0.385316,-0.56809,0.598251,-0.91542,0.3595,-0.06189,6069.08,-0.04259,-0.723465,-0.005282,-0.689026,-0.98082,0.04288,0.03918,2.33,2.48,2.59,2.91,2.98,3.03,2.84,3.9,3.02,3.94,4,3.82,3.9,3.87,3.73,2582,10.758333,62609.112333,94.832466,937.09436,-238.965393,1.69776352772508,2.50026222119282,2.19531618644723,47.896732,822.385071,123.95137,133.058273,1178.98999,-62.454502,"COMBO"
105,17,23,29.117,6072.4,-0.413399,0.385382,-0.568005,0.598291,-0.91413,0.35707,-0.06288,6069.1,-0.042623,-0.723408,-0.00525,-0.689084,-0.97934,0.04517,0.03957,2.33,2.48,2.59,2.91,2.98,3.03,2.84,3.9,3.02,3.94,4,3.82,3.89,3.87,3.73,2584,10.766667,62609.120667,94.819275,937.093567,-238.948578,1.69776825182429,2.50025944031392,2.19531774593561,47.876678,822.381897,123.969124,133.046219,1178.986938,-62.438587,"COMBO"
106,17,23,29.153,6072.42,-0.413377,0.385472,-0.567933,0.598317,-0.91408,0.35723,-0.06091,6069.12,-0.04261,-0.723376,-0.005163,-0.689119,-0.97536,0.04811,0.04405,2.33,2.48,2.59,2.91,2.98,3.03,2.84,3.9,3.02,3.94,4,3.82,3.89,3.87,3.73,2592,10.8,62609.154,94.736031,937.023193,-238.894516,1.69787544630768,2.50043605323232,2.19511085061575,47.807735,822.348511,123.991997,132.996063,1178.954712,-62.430634,"COMBO"
107,17,23,29.162,6072.44,-0.413315,0.385574,-0.567868,0.598355,-0.91518,0.35791,-0.06123,6069.14,-0.042646,-0.723416,-0.005193,-0.689075,-0.9771,0.04923,0.0441,2.33,2.48,2.59,2.91,2.98,3.03,2.84,3.9,3.02,3.94,4,3.82,3.9,3.87,3.73,2594,10.808333,62609.162333,94.718918,936.997437,-238.892059,1.69791642165663,2.50048013117574,2.19505543875709,47.795372,822.341187,123.994286,132.990463,1178.932129,-62.44524,"COMBO"
108,17,23,29.192,6072.46,-0.413283,0.3857,-0.567816,0.598346,-0.91818,0.3561,-0.0595,6069.16,-0.042681,-0.723524,-0.005387,-0.688958,-0.98075,0.04708,0.043,2.33,2.48,2.59,2.91,2.98,3.03,2.84,3.91,3.02,3.94,4,3.82,3.89,3.87,3.73,2602,10.841667,62609.195667,94.634705,936.892883,-238.879028,1.69824842235481,2.50077980514365,2.19466439227201,47.723896,822.315491,123.960403,133.007141,1178.890991,-62.521214,"COMBO"
109,17,23,29.2,6072.48,-0.413302,0.385726,-0.567806,0.598326,-0.91905,0.35458,-0.05673,6069.18,-0.042783,-0.723653,-0.005636,-0.688813,-0.98532,0.04511,0.04089,2.33,2.48,2.59,2.91,2.98,3.03,2.84,3.9,3.02,3.94,4,3.82,3.89,3.87,3.73,2604,10.85,62609.204,94.619301,936.867004,-238.876556,1.69832564403286,2.50090856726043,2.1945137008427,47.703259,822.314026,123.944046,133.014679,1178.887207,-62.556499,"COMBO"
110,17,23,29.232,6072.5,-0.413334,0.3859,-0.567918,0.598084,-0.91769,0.35538,-0.05906,6069.2,-0.042833,-0.723759,-0.005877,-0.688697,-0.98865,0.04688,0.04124,2.33,2.48,2.59,2.91,2.98,3.03,2.84,3.9,3.02,3.93,4,3.82,3.89,3.87,3.73,2611,10.879167,62609.233167,94.592133,936.785645,-238.896469,1.69841757848462,2.50115482408095,2.19424030737085,47.650963,822.295898,123.89389,133.015747,1178.854736,-62.640167,"COMBO"
111,17,23,29.237,6072.52,-0.413361,0.38585,-0.567907,0.598109,-0.91983,0.35578,-0.0554,6069.22,-0.042822,-0.723874,-0.00606,-0.688576,-0.98532,0.04633,0.0421,2.33,2.48,2.59,2.91,2.98,3.03,2.84,3.9,3.03,3.94,4,3.82,3.89,3.87,3.73,2612,10.883333,62609.237333,94.592819,936.771912,-238.905853,1.69842587957476,2.50119613233908,2.19419634067038,47.647514,822.293457,123.888268,133.019974,1178.855103,-62.655487,"COMBO"
112,17,23,29.273,6072.54,-0.41341,0.385768,-0.567936,0.5981,-0.91806,0.35697,-0.0564,6069.24,-0.042778,-0.723993,-0.006215,-0.688452,-0.98376,0.04708,0.04456,2.33,2.48,2.59,2.91,2.98,3.03,2.84,3.9,3.03,3.94,4,3.82,3.89,3.87,3.73,2621,10.920833,62609.274833,94.534103,936.657227,-238.932388,1.69865702995216,2.5015659593326,2.19376086134341,47.605999,822.279602,123.842789,133.029739,1178.80249,-62.792145,"COMBO"
113,17,23,29.278,6072.56,-0.413401,0.385697,-0.56804,0.598054,-0.9171,0.3592,-0.05842,6069.26,-0.042737,-0.724088,-0.006423,-0.688353,-0.98556,0.04363,0.04281,2.33,2.48,2.59,2.91,2.98,3.03,2.84,3.9,3.02,3.94,4,3.82,3.9,3.87,3.73,2622,10.925,62609.279,94.523727,936.639404,-238.930908,1.69866767857358,2.50159851026539,2.19372511293438,47.604748,822.277222,123.835663,133.022919,1178.792847,-62.797749,"COMBO"
114,17,23,29.312,6072.58,-0.413422,0.385635,-0.568089,0.598033,-0.91607,0.36021,-0.056,6069.28,-0.042796,-0.724157,-0.006548,-0.688275,-0.98872,0.04163,0.04236,2.33,2.48,2.59,2.91,2.98,3.03,2.84,3.9,3.02,3.94,4.01,3.82,3.89,3.87,3.73,2630,10.958333,62609.312333,94.458282,936.55957,-238.927048,1.69867298742733,2.50179605924721,2.19352398908473,47.576786,822.272339,123.837563,132.95903,1178.748413,-62.843361,"COMBO"
115,17,23,29.318,6072.6,-0.41333,0.38555,-0.568206,0.59804,-0.91577,0.36237,-0.0573,6069.3,-0.042762,-0.724209,-0.006788,-0.68822,-0.98812,0.04086,0.04546,2.33,2.48,2.59,2.91,2.98,3.03,2.84,3.9,3.03,3.94,4,3.82,3.9,3.87,3.73,2632,10.966667,62609.320667,94.435326,936.545898,-238.91954,1.69867430083344,2.50181542733532,2.19350405861392,47.573589,822.265747,123.842751,132.935272,1178.730713,-62.846207,"COMBO"
116,17,23,29.353,6072.62,-0.413315,0.385526,-0.568218,0.598055,-0.91588,0.36185,-0.05833,6069.32,-0.042822,-0.724163,-0.006787,-0.688265,-0.98443,0.04431,0.04689,2.33,2.48,2.59,2.91,2.98,3.03,2.84,3.9,3.03,3.94,4,3.82,3.89,3.87,3.73,2640,11,62609.354,94.039375,936.67395,-239.17247,1.69957279214099,2.50057319444025,2.19451928308385,47.552826,822.242554,123.878952,132.812378,1178.659912,-62.831886,"COMBO"
117,17,23,29.363,6072.64,-0.413292,0.385522,-0.568214,0.598077,-0.91528,0.36276,-0.0595,6069.34,-0.042921,-0.724107,-0.006788,-0.688318,-0.98352,0.04475,0.04506,2.33,2.48,2.59,2.91,2.98,3.03,2.84,3.9,3.02,3.94,4,3.82,3.89,3.87,3.73,2643,11.0125,62609.3665,94.246597,936.411133,-238.839966,1.69871040554171,2.50201465693313,2.19329300713778,47.542229,822.224121,123.889542,132.756866,1178.628784,-62.820621,"COMBO"
118,17,23,29.391,6072.66,-0.412953,0.385508,-0.56848,0.598067,-0.91342,0.36218,-0.05865,6069.36,-0.042964,-0.724016,-0.006856,-0.68841,-0.98403,0.04061,0.04196,2.33,2.48,2.59,2.91,2.98,3.03,2.84,3.9,3.02,3.94,4,3.82,3.89,3.87,3.73,2649,11.0375,62609.3915,94.153427,936.318298,-238.777649,1.69848715905265,2.50217985326184,2.19318558304126,47.501991,822.193787,123.910255,132.598007,1178.572998,-62.779358,"COMBO"
119,17,23,29.396,6072.68,-0.41292,0.385548,-0.568484,0.59806,-0.91485,0.36084,-0.06044,6069.38,-0.043058,-0.723904,-0.006763,-0.688523,-0.98499,0.03774,0.04035,2.33,2.48,2.59,2.91,2.98,3.03,2.84,3.9,3.03,3.94,4,3.82,3.89,3.87,3.73,2651,11.045833,62609.399833,94.125633,936.281982,-238.755875,1.69843122951716,2.50223875699654,2.19314094696492,47.486549,822.183655,123.915077,132.553864,1178.549805,-62.766708,"COMBO"
120,17,23,29.433,6072.7,-0.412945,0.385635,-0.568459,0.59801,-0.91588,0.35863,-0.06013,6069.4,-0.04299,-0.723722,-0.006647,-0.688719,-0.98431,0.03992,0.04074,2.33,2.48,2.59,2.91,2.98,3.03,2.84,3.9,3.03,3.94,4,3.82,3.9,3.87,3.73,2659,11.079167,62609.433167,93.747299,936.322388,-238.955475,1.69913990892871,2.5012865323619,2.19391423164646,47.41626,822.123352,123.895897,132.393478,1178.45459,-62.750465,"COMBO"
121,17,23,29.441,6072.72,-0.412902,0.385717,-0.568446,0.597999,-0.91624,0.35643,-0.05967,6069.42,-0.042974,-0.723568,-0.006582,-0.688882,-0.98375,0.0467,0.04074,2.33,2.48,2.59,2.91,2.98,3.03,2.84,3.9,3.02,3.94,4,3.82,3.9,3.87,3.73,2661,11.0875,62609.4415,93.984703,936.058594,-238.624557,1.69828809736551,2.50277351102016,2.192638484685,47.386757,822.123047,123.891426,132.37085,1178.427612,-62.755108,"COMBO"
122,17,23,29.473,6072.74,-0.412834,0.385801,-0.568442,0.597996,-0.91548,0.35583,-0.06104,6069.44,-0.042942,-0.723464,-0.006593,-0.688994,-0.98375,0.04829,0.03978,2.33,2.48,2.59,2.91,2.98,3.03,2.84,3.9,3.02,3.94,4,3.82,3.89,3.87,3.73,2669,11.120833,62609.474833,93.658356,936.102234,-238.866119,1.69886489988061,2.50190602319488,2.19336154359941,47.269337,822.060974,123.87384,132.224014,1178.357666,-62.788277,"COMBO"
123,17,23,29.479,6072.76,-0.412772,0.385947,-0.56851,0.59788,-0.91795,0.35599,-0.05633,6069.46,-0.042698,-0.723314,-0.006628,-0.689166,-0.98748,0.0415,0.03728,2.33,2.48,2.59,2.91,2.98,3.03,2.84,3.9,3.02,3.94,4,3.82,3.9,3.87,3.73,2670,11.125,62609.479,93.658485,936.085693,-238.861511,1.69882577618505,2.50197221630253,2.1933050844213,47.256908,822.051636,123.86853,132.211761,1178.348877,-62.800556,"COMBO"
124,17,23,29.512,6072.78,-0.412725,0.386023,-0.568533,0.597841,-0.91783,0.35744,-0.05835,6069.48,-0.042435,-0.723234,-0.006549,-0.689267,-0.98936,0.03784,0.03901,2.33,2.48,2.59,2.91,2.98,3.03,2.84,3.9,3.02,3.94,4,3.82,3.89,3.87,3.73,2678,11.158333,62609.512333,93.94313,935.717529,-238.51651,1.69734611084249,2.5038242448445,2.19182636136229,47.124813,821.996887,123.859192,132.048859,1178.286255,-62.838657,"COMBO"
125,17,23,29.521,6072.8,-0.412711,0.386015,-0.568585,0.597807,-0.91504,0.35911,-0.06144,6069.5,-0.042128,-0.72317,-0.006527,-0.689354,-0.98676,0.04436,0.04393,2.33,2.48,2.59,2.91,2.98,3.03,2.84,3.9,3.02,3.94,4,3.82,3.9,3.87,3.73,2681,11.170833,62609.524833,93.936691,935.666748,-238.505737,1.69719134831556,2.50398033398756,2.19170950198056,47.079285,821.978394,123.855118,131.995209,1178.258057,-62.860542,"COMBO"
126,17,23,29.551,6072.82,-0.412665,0.386047,-0.568666,0.597741,-0.91582,0.36058,-0.05727,6069.52,-0.041888,-0.72312,-0.00657,-0.68942,-0.9827,0.04545,0.04478,2.33,2.48,2.59,2.91,2.98,3.03,2.84,3.9,3.02,3.94,4,3.82,3.9,3.87,3.73,2688,11.2,62609.554,93.591011,935.781189,-238.780426,1.69790092690526,2.50290594719356,2.19260757526993,46.991219,821.943848,123.866074,131.865402,1178.200562,-62.899323,"COMBO"
127,17,23,29.556,6072.84,-0.412636,0.386042,-0.568739,0.597695,-0.91697,0.3607,-0.05774,6069.54,-0.041762,-0.723093,-0.006703,-0.689455,-0.98434,0.04557,0.04347,2.33,2.48,2.59,2.91,2.98,3.03,2.84,3.9,3.02,3.94,4,3.82,3.89,3.87,3.73,2689,11.204167,62609.558167,93.859673,935.531494,-238.454529,1.69692729824238,2.5043981067812,2.19135692249663,46.977043,821.939819,123.868828,131.838974,1178.197021,-62.896534,"COMBO"
128,17,23,29.592,6072.86,-0.412449,0.386127,-0.569022,0.5975,-0.91575,0.36155,-0.05347,6069.56,-0.041747,-0.723048,-0.006869,-0.689501,-0.98649,0.046,0.04135,2.33,2.48,2.59,2.91,2.98,3.03,2.84,3.91,3.02,3.94,4,3.82,3.89,3.87,3.73,2698,11.241667,62609.595667,93.753723,935.442566,-238.427673,1.69675686212193,2.5045967623155,2.19120105141304,46.910652,821.883667,123.892731,131.680664,1178.135376,-62.914036,"COMBO"
129,17,23,29.597,6072.88,-0.412412,0.386136,-0.569121,0.597425,-0.91619,0.36222,-0.05526,6069.58,-0.041773,-0.723003,-0.006917,-0.689546,-0.98912,0.04578,0.04218,2.33,2.48,2.59,2.91,2.98,3.03,2.84,3.9,3.02,3.94,4,3.82,3.89,3.87,3.73,2699,11.245833,62609.599833,93.743019,935.442871,-238.436722,1.69672125140352,2.50454815088729,2.19125956945322,46.908791,821.877319,123.892273,131.659409,1178.127686,-62.90818,"COMBO"
130,17,23,29.632,6072.9,-0.412243,0.386135,-0.5693,0.597373,-0.91328,0.3623,-0.05479,6069.6,-0.041852,-0.722999,-0.006893,-0.689545,-0.99023,0.04546,0.04218,2.33,2.48,2.59,2.91,2.98,3.02,2.84,3.9,3.02,3.94,4,3.82,3.89,3.87,3.73,2707,11.279167,62609.633167,93.356583,935.694092,-238.760895,1.69747819984941,2.50291274237695,2.19271278221784,46.880348,821.853821,123.919205,131.504257,1178.114014,-62.854462,"COMBO"
131,17,23,29.637,6072.92,-0.412213,0.386147,-0.569369,0.597319,-0.91523,0.36257,-0.05373,6069.62,-0.041987,-0.722907,-0.006784,-0.689635,-0.98929,0.04564,0.04253,2.33,2.48,2.59,2.91,2.98,3.03,2.84,3.9,3.02,3.94,4,3.82,3.9,3.87,3.73,2708,11.283333,62609.637333,93.335876,935.702148,-238.758865,1.69750040038971,2.50287730080305,2.19274273021953,46.869839,821.856812,123.925232,131.489532,1178.11145,-62.84816,"COMBO"
132,17,23,29.671,6072.94,-0.412199,0.386151,-0.56942,0.597277,-0.91778,0.36171,-0.05334,6069.64,-0.042218,-0.72282,-0.006724,-0.689712,-0.9861,0.04504,0.03906,2.33,2.48,2.59,2.91,2.98,3.03,2.84,3.9,3.02,3.94,4,3.82,3.89,3.87,3.73,2717,11.320833,62609.674833,93.189606,935.740845,-238.741913,1.69750584437501,2.50263768822944,2.19298348902149,46.858604,821.833557,123.954132,131.34465,1178.105469,-62.773251,"COMBO"
133,17,23,29.676,6072.96,-0.412098,0.38621,-0.569594,0.597143,-0.91724,0.36119,-0.0534,6069.66,-0.042349,-0.722705,-0.006747,-0.689825,-0.98488,0.04,0.03723,2.33,2.48,2.59,2.91,2.98,3.03,2.84,3.9,3.02,3.94,4,3.82,3.89,3.87,3.73,2718,11.325,62609.679,93.178482,935.74707,-238.737473,1.69750174267524,2.50262321900093,2.19299920000171,46.860615,821.836548,123.95652,131.331055,1178.101196,-62.770687,"COMBO"
134,17,23,29.713,6072.98,-0.412106,0.386223,-0.569607,0.597116,-0.91689,0.36112,-0.05362,6069.68,-0.042511,-0.722647,-0.006675,-0.689876,-0.982,0.04049,0.03625,2.33,2.48,2.59,2.91,2.98,3.03,2.84,3.9,3.02,3.94,4,3.82,3.9,3.87,3.73,2727,11.3625,62609.7165,93.108345,935.727722,-238.718536,1.69721099535572,2.50264915247501,2.19304985500344,46.880817,821.827087,123.956947,131.174667,1178.091797,-62.735489,"COMBO"
135,17,23,29.722,6073,-0.412127,0.386342,-0.569747,0.596891,-0.91631,0.36063,-0.05423,6069.7,-0.042474,-0.722529,-0.006657,-0.690003,-0.97817,0.03878,0.03514,2.33,2.48,2.59,2.91,2.98,3.03,2.84,3.9,3.02,3.94,4,3.82,3.9,3.87,3.73,2729,11.370833,62609.724833,93.095558,935.69812,-238.715042,1.69711033593227,2.50270497567907,2.19302000466079,46.892769,821.835938,123.952545,131.130661,1178.06543,-62.744267,"COMBO"
136,17,23,29.751,6073.02,-0.412146,0.386361,-0.569744,0.596869,-0.91635,0.35875,-0.05504,6069.72,-0.042483,-0.722475,-0.006583,-0.690059,-0.96915,0.04037,0.03957,2.34,2.48,2.59,2.91,2.98,3.03,2.84,3.9,3.02,3.94,4,3.82,3.9,3.87,3.73,2736,11.4,62609.754,93.30555,935.267639,-238.359375,1.69619506845479,2.50469954875362,2.19124485476003,46.945332,821.860779,123.923126,131.064087,1177.978027,-62.835613,"COMBO"
137,17,23,29.756,6073.04,-0.412154,0.386376,-0.569753,0.596846,-0.91752,0.35931,-0.05188,6069.74,-0.042296,-0.722499,-0.00645,-0.690047,-0.96814,0.04177,0.04356,2.34,2.48,2.59,2.91,2.98,3.03,2.84,3.9,3.02,3.94,4,3.82,3.9,3.87,3.73,2737,11.404167,62609.758167,93.299812,935.237061,-238.354645,1.69623717166649,2.5047665562119,2.1911660818981,46.952091,821.856567,123.921867,131.07132,1177.961792,-62.84856,"COMBO"
138,17,23,29.791,6073.06,-0.412111,0.386433,-0.569854,0.596741,-0.92167,0.36056,-0.04421,6069.76,-0.041851,-0.722638,-0.006265,-0.689931,-0.985,0.03324,0.04245,2.34,2.48,2.59,2.91,2.98,3.03,2.84,3.9,3.03,3.94,4,3.82,3.89,3.87,3.73,2745,11.4375,62609.7915,93.014915,935.291077,-238.656876,1.69719255710133,2.5037892858675,2.19190230044257,46.926674,821.817444,123.891357,131.078369,1177.877197,-62.943226,"COMBO"
139,17,23,29.796,6073.08,-0.412156,0.386417,-0.569788,0.596784,-0.9186,0.36039,-0.05232,6069.78,-0.041473,-0.722808,-0.006104,-0.689777,-1.0003,0.03495,0.03812,2.34,2.48,2.59,2.91,2.98,3.03,2.84,3.9,3.03,3.94,4,3.82,3.9,3.87,3.73,2747,11.445833,62609.799833,93.271454,935.010315,-238.324265,1.69637735938811,2.5053968240166,2.19049220890191,46.908756,821.803528,123.891609,131.087936,1177.86731,-62.969917,"COMBO"
140,17,23,29.833,6073.1,-0.412317,0.386377,-0.569699,0.596783,-0.91167,0.35531,-0.06079,6069.8,-0.041302,-0.722927,-0.006197,-0.689662,-1.00105,0.0516,0.03795,2.34,2.48,2.59,2.91,2.98,3.03,2.84,3.9,3.02,3.94,4,3.82,3.89,3.87,3.73,2755,11.479167,62609.833167,92.9552,935.259094,-238.64119,1.69742922140331,2.50423478688977,2.19138935282514,46.810715,821.815674,123.904762,131.089218,1177.923218,-63.055016,"COMBO"
141,17,23,29.838,6073.12,-0.412353,0.386331,-0.56971,0.596778,-0.91094,0.35484,-0.06606,6069.82,-0.041185,-0.723086,-0.00645,-0.689499,-1.00092,0.05549,0.04086,2.34,2.48,2.59,2.91,2.98,3.03,2.84,3.9,3.02,3.94,4,3.82,3.89,3.87,3.73,2757,11.4875,62609.8415,93.204193,935.026489,-238.318481,1.69658606084276,2.505767334702,2.19006277482146,46.7882,821.827759,123.910393,131.082489,1177.945435,-63.072941,"COMBO"
142,17,23,29.873,6073.14,-0.412362,0.38629,-0.569696,0.596811,-0.91595,0.36084,-0.06253,6069.84,-0.041113,-0.723255,-0.006653,-0.689324,-0.99432,0.04672,0.04435,2.34,2.48,2.59,2.91,2.98,3.03,2.84,3.9,3.02,3.94,4,3.82,3.89,3.87,3.73,2765,11.520833,62609.874833,92.843246,935.416809,-238.696686,1.69755502084612,2.50407273316148,2.19151984543446,46.682564,821.854431,123.911797,131.014801,1178.050903,-63.079117,"COMBO"
143,17,23,29.882,6073.16,-0.412319,0.386237,-0.56956,0.597006,-0.92219,0.3634,-0.0632,6069.86,-0.041248,-0.723488,-0.007022,-0.689068,-0.98411,0.03784,0.0497,2.34,2.48,2.59,2.91,2.98,3.03,2.84,3.9,3.02,3.94,4,3.82,3.9,3.87,3.73,2767,11.529167,62609.883167,93.075844,935.203979,-238.384476,1.69665784871586,2.50549900408008,2.19031511488728,46.661175,821.86438,123.911011,130.975494,1178.073853,-63.077591,"COMBO"
144,17,23,29.912,6073.18,-0.412292,0.386226,-0.569453,0.597133,-0.9217,0.36084,-0.05706,6069.88,-0.041611,-0.723623,-0.007417,-0.6889,-0.98696,0.0466,0.04278,2.34,2.48,2.59,2.91,2.98,3.03,2.84,3.9,3.02,3.94,4,3.82,3.89,3.87,3.73,2774,11.558333,62609.912333,92.906029,935.340149,-238.430573,1.69677114722818,2.50525315900722,2.19053377391612,46.631752,821.845947,123.920509,130.838867,1178.161133,-63.073402,"COMBO"
145,17,23,29.921,6073.2,-0.412304,0.386169,-0.569476,0.59714,-0.9141,0.35718,-0.05457,6069.9,-0.042006,-0.723665,-0.007693,-0.688829,-0.99091,0.05071,0.04152,2.34,2.48,2.59,2.91,2.98,3.03,2.84,3.9,3.02,3.94,4,3.82,3.89,3.87,3.73,2777,11.570833,62609.924833,92.836945,935.416382,-238.456375,1.69674778589513,2.50507073559228,2.19072433613225,46.624931,821.839783,123.931282,130.761902,1178.198975,-63.056461,"COMBO"
146,17,23,29.95,6073.22,-0.412338,0.386094,-0.569446,0.597194,-0.91359,0.3592,-0.05235,6069.92,-0.042456,-0.723641,-0.007862,-0.688825,-0.98955,0.04698,0.04281,2.34,2.48,2.59,2.91,2.98,3.03,2.84,3.9,3.02,3.94,4,3.82,3.9,3.87,3.73,2784,11.6,62609.954,92.656937,935.627808,-238.529999,1.69681909876094,2.5044813280438,2.1913013324106,46.627743,821.826965,123.954391,130.601608,1178.294067,-62.995941,"COMBO"
147,17,23,29.956,6073.24,-0.412298,0.386102,-0.56945,0.597212,-0.91274,0.36389,-0.05146,6069.94,-0.042903,-0.723611,-0.007908,-0.688828,-0.98856,0.04217,0.04361,2.34,2.48,2.59,2.91,2.98,3.03,2.84,3.9,3.02,3.94,4,3.82,3.89,3.87,3.73,2785,11.604167,62609.958167,92.637032,935.656921,-238.540588,1.69682550731546,2.504392664244,2.19138926558784,46.635815,821.817139,123.960678,130.584137,1178.310547,-62.982552,"COMBO"
148,17,23,29.993,6073.26,-0.412054,0.38617,-0.569661,0.597136,-0.91471,0.36379,-0.05127,6069.96,-0.043292,-0.723548,-0.007845,-0.688871,-0.98675,0.0433,0.03931,2.34,2.48,2.59,2.91,2.98,3.03,2.84,3.9,3.02,3.94,4,3.82,3.9,3.87,3.73,2794,11.641667,62609.995667,92.461082,935.956543,-238.666168,1.69679019246363,2.50346238900752,2.19233886173762,46.619171,821.817749,124.042564,130.398224,1178.446899,-62.872143,"COMBO"
149,17,23,30.002,6073.28,-0.411995,0.38624,-0.569657,0.597134,-0.91579,0.36094,-0.05505,6069.98,-0.043705,-0.723465,-0.007679,-0.688934,-0.98655,0.04375,0.03624,2.34,2.48,2.59,2.91,2.98,3.03,2.84,3.9,3.02,3.94,4,3.82,3.9,3.87,3.73,2796,11.65,62610.004,92.430908,936.025574,-238.692307,1.69677697500129,2.50325154841291,2.19255544212346,46.611706,821.819092,124.066528,130.363235,1178.472534,-62.849098,"COMBO"
150,17,23,30.033,6073.3,-0.411872,0.386293,-0.56962,0.59722,-0.91591,0.36206,-0.05763,6070,-0.044001,-0.723292,-0.007468,-0.689099,-0.98642,0.04046,0.03709,2.34,2.48,2.59,2.91,2.98,3.03,2.84,3.91,3.02,3.94,4,3.82,3.89,3.87,3.73,2803,11.679167,62610.033167,92.368851,936.225708,-238.762329,1.69652605144338,2.50269468229159,2.19318422960726,46.582527,821.820129,124.119499,130.228531,1178.588501,-62.753201,"COMBO"
151,17,23,30.041,6073.32,-0.411784,0.386376,-0.569538,0.597306,-0.91745,0.36321,-0.05818,6070.02,-0.04431,-0.723122,-0.007186,-0.68926,-0.98626,0.04034,0.03728,2.34,2.48,2.59,2.91,2.98,3.03,2.84,3.9,3.02,3.94,4,3.82,3.9,3.87,3.73,2805,11.6875,62610.0415,92.355682,936.291992,-238.787842,1.69640382218177,2.50249919412181,2.19341387562408,46.567451,821.819397,124.128296,130.179138,1178.62207,-62.720581,"COMBO"
152,17,23,30.071,6073.34,-0.411707,0.386454,-0.569445,0.597396,-0.91612,0.36199,-0.05654,6070.04,-0.044624,-0.722929,-0.006906,-0.689445,-0.98839,0.04621,0.0353,2.34,2.48,2.59,2.91,2.98,3.03,2.84,3.9,3.02,3.94,4,3.82,3.89,3.87,3.73,2813,11.720833,62610.074833,92.104401,936.765442,-239.175934,1.69667292107724,2.50043892699113,2.1954251885334,46.531597,821.800415,124.161461,130.011963,1178.746338,-62.599415,"COMBO"
153,17,23,30.076,6073.36,-0.41163,0.386557,-0.569412,0.597415,-0.91654,0.35836,-0.05612,6070.06,-0.044819,-0.722704,-0.006625,-0.689671,-0.98593,0.04539,0.03564,2.34,2.48,2.59,2.91,2.98,3.03,2.84,3.9,3.02,3.94,4,3.82,3.89,3.87,3.73,2814,11.725,62610.079,92.105095,936.794312,-239.188248,1.69662257478106,2.50035699971709,2.19552118801739,46.528862,821.800171,124.156052,129.997742,1178.761475,-62.58744,"COMBO"
154,17,23,30.111,6073.38,-0.411546,0.386625,-0.569359,0.597479,-0.91455,0.35732,-0.05334,6070.08,-0.044995,-0.722552,-0.006344,-0.689822,-0.98242,0.04161,0.03627,2.34,2.48,2.59,2.91,2.98,3.03,2.84,3.9,3.02,3.94,4,3.82,3.9,3.87,3.73,2822,11.758333,62610.112333,92.181915,937.026001,-239.310379,1.69598734251685,2.49978075720312,2.1962696602965,46.513496,821.770996,124.148964,129.88179,1178.873169,-62.53791,"COMBO"
155,17,23,30.116,6073.4,-0.411491,0.386731,-0.569327,0.597479,-0.9153,0.35772,-0.05477,6070.1,-0.044998,-0.722407,-0.006119,-0.689975,-0.98104,0.04295,0.03477,2.34,2.48,2.59,2.91,2.98,3.03,2.84,3.9,3.02,3.94,4,3.82,3.9,3.87,3.73,2823,11.7625,62610.1165,92.198753,937.050415,-239.320923,1.69588626860924,2.49973932496129,2.19633788881613,46.508522,821.770813,124.147545,129.867767,1178.886353,-62.534489,"COMBO"
156,17,23,30.152,6073.42,-0.41143,0.386794,-0.569269,0.597536,-0.91685,0.35808,-0.0545,6070.12,-0.044984,-0.722303,-0.005862,-0.690088,-0.97921,0.04545,0.03418,2.34,2.48,2.59,2.91,2.98,3.03,2.84,3.9,3.02,3.94,4,3.82,3.9,3.87,3.73,2832,11.8,62610.154,92.615166,936.987915,-239.149063,1.69436891959063,2.500733711696,2.19572682974044,46.460281,821.76593,124.106583,129.825363,1178.975952,-62.532307,"COMBO"
157,17,23,30.16,6073.44,-0.411327,0.38687,-0.569205,0.597618,-0.91725,0.35768,-0.05331,6070.14,-0.044925,-0.722216,-0.005621,-0.690184,-0.97911,0.04374,0.03435,2.34,2.48,2.59,2.91,2.98,3.03,2.84,3.9,3.02,3.94,4,3.82,3.9,3.87,3.73,2834,11.808333,62610.162333,92.65657,937.014587,-239.182816,1.69423814702652,2.50069062484484,2.19580404520971,46.451721,821.761353,124.099617,129.826843,1178.98999,-62.550701,"COMBO"
158,17,23,30.191,6073.46,-0.411322,0.386914,-0.569161,0.597634,-0.91813,0.35829,-0.05575,6070.16,-0.044667,-0.722093,-0.005497,-0.69033,-0.97897,0.04091,0.03502,2.34,2.48,2.59,2.91,2.98,3.03,2.84,3.9,3.02,3.94,4,3.82,3.9,3.87,3.73,2841,11.8375,62610.1915,92.821594,937.05658,-239.251846,1.69371662248084,2.50069744895963,2.19593117191453,46.431393,821.758057,124.066818,129.83519,1179.030396,-62.590668,"COMBO"
159,17,23,30.196,6073.48,-0.411274,0.386919,-0.569146,0.597679,-0.91675,0.35864,-0.05612,6070.18,-0.044527,-0.721992,-0.005291,-0.690446,-0.97848,0.041,0.03678,2.34,2.48,2.59,2.91,2.98,3.03,2.84,3.9,3.02,3.94,4,3.82,3.9,3.87,3.73,2843,11.845833,62610.199833,92.864166,937.056946,-239.269958,1.6935765290291,2.5006974882064,2.19596703622175,46.426991,821.758545,124.055313,129.835434,1179.028442,-62.6017,"COMBO"
160,17,23,30.232,6073.5,-0.411201,0.38689,-0.569135,0.597758,-0.91797,0.36115,-0.05668,6070.2,-0.044296,-0.721928,-0.005252,-0.690529,-0.97961,0.0436,0.03986,2.34,2.48,2.59,2.91,2.98,3.03,2.84,3.9,3.01,3.94,4,3.82,3.9,3.88,3.73,2851,11.879167,62610.233167,93.009781,937.027466,-239.304001,1.6932144251426,2.50087316018861,2.19588223974997,46.409821,821.765076,124.014923,129.870361,1179.016235,-62.667034,"COMBO"
161,17,23,30.241,6073.52,-0.411179,0.38688,-0.569104,0.597809,-0.91649,0.36187,-0.05408,6070.22,-0.044138,-0.721854,-0.005125,-0.690617,-0.98,0.04473,0.04142,2.34,2.48,2.59,2.91,2.98,3.03,2.84,3.91,3.02,3.94,4,3.82,3.9,3.87,3.73,2853,11.8875,62610.2415,93.033127,937.010315,-239.312317,1.69314683250621,2.50091333667032,2.19585892552255,46.414135,821.761292,124.004234,129.874146,1179.010864,-62.67775,"COMBO"
162,17,23,30.271,6073.54,-0.411181,0.386838,-0.569102,0.597837,-0.91565,0.36084,-0.05327,6070.24,-0.044006,-0.721822,-0.005042,-0.69066,-0.98094,0.04436,0.03983,2.34,2.48,2.59,2.91,2.98,3.03,2.84,3.91,3.01,3.94,4,3.82,3.9,3.87,3.73,2861,11.920833,62610.274833,93.144714,936.949341,-239.329758,1.69297237651073,2.50112807307411,2.19568657450549,46.436977,821.753723,123.977005,129.932465,1178.982056,-62.74218,"COMBO"
163,17,23,30.276,6073.56,-0.411068,0.386836,-0.569213,0.59781,-0.916,0.36222,-0.05321,6070.26,-0.043688,-0.721796,-0.005127,-0.690706,-0.98197,0.04133,0.03805,2.34,2.48,2.59,2.91,2.98,3.03,2.84,3.9,3.01,3.94,4,3.82,3.9,3.87,3.73,2862,11.925,62610.279,93.164635,936.935303,-239.334213,1.69293364970521,2.50116468294854,2.19565947536183,46.436581,821.757813,123.983124,129.940262,1178.971191,-62.755772,"COMBO"
164,17,23,30.314,6073.58,-0.411061,0.386807,-0.569223,0.597825,-0.91502,0.36217,-0.05389,6070.28,-0.043526,-0.721804,-0.005062,-0.690708,-0.98244,0.0418,0.03852,2.34,2.48,2.59,2.91,2.98,3.03,2.84,3.9,3.02,3.94,4,3.82,3.89,3.87,3.73,2871,11.9625,62610.3165,93.258476,936.831116,-239.316467,1.69298820530414,2.50142504063155,2.19538263567613,46.453114,821.767212,123.968826,130.051132,1178.918457,-62.802525,"COMBO"
165,17,23,30.323,6073.6,-0.41091,0.386814,-0.569431,0.597726,-0.91535,0.36312,-0.05392,6070.3,-0.043257,-0.721815,-0.005175,-0.690714,-0.98237,0.04098,0.03905,2.33,2.48,2.59,2.91,2.98,3.03,2.84,3.9,3.01,3.94,4,3.82,3.9,3.87,3.73,2873,11.970833,62610.324833,93.274818,936.806213,-239.312103,1.69299780983192,2.50151635411315,2.19528796849912,46.450077,821.774048,123.968399,130.069946,1178.907349,-62.823288,"COMBO"
166,17,23,30.353,6073.62,-0.410921,0.386792,-0.569469,0.597696,-0.91633,0.36187,-0.05477,6070.32,-0.043101,-0.721851,-0.005155,-0.690686,-0.98357,0.04363,0.04058,2.34,2.48,2.59,2.91,2.98,3.03,2.84,3.9,3.01,3.94,4,3.82,3.9,3.87,3.73,2880,12,62610.354,93.318748,936.71637,-239.268127,1.69316567681924,2.50175491392607,2.19500418928662,46.44099,821.773499,123.978073,130.162399,1178.848877,-62.857285,"COMBO"
167,17,23,30.364,6073.64,-0.410924,0.386792,-0.569503,0.597662,-0.9167,0.36365,-0.05809,6070.34,-0.043004,-0.721908,-0.005201,-0.690632,-0.98342,0.04449,0.04056,2.33,2.48,2.59,2.91,2.98,3.03,2.84,3.9,3.02,3.94,4,3.82,3.9,3.87,3.73,2883,12.0125,62610.3665,93.067589,936.907349,-239.564102,1.69407470211319,2.50042946337316,2.19610988501658,46.442673,821.769165,123.981384,130.187561,1178.826904,-62.863476,"COMBO"
168,17,23,30.391,6073.66,-0.410909,0.386754,-0.569532,0.597669,-0.91516,0.36206,-0.05776,6070.36,-0.042856,-0.722014,-0.005487,-0.690528,-0.98392,0.04377,0.04098,2.33,2.48,2.59,2.91,2.97,3.03,2.84,3.9,3.01,3.94,4,3.82,3.9,3.87,3.73,2889,12.0375,62610.3915,93.064674,936.815735,-239.520432,1.69431812222637,2.50066086264164,2.19581350519974,46.438469,821.7677,124.001389,130.256073,1178.767334,-62.899456,"COMBO"
169,17,23,30.397,6073.68,-0.410934,0.386733,-0.569572,0.597628,-0.91464,0.36161,-0.05716,6070.38,-0.042822,-0.722077,-0.005606,-0.690464,-0.98457,0.04395,0.04177,2.33,2.48,2.59,2.91,2.98,3.03,2.84,3.9,3.01,3.94,4,3.82,3.9,3.87,3.73,2891,12.045833,62610.399833,93.318237,936.547546,-239.189972,1.69355409212251,2.50215991012567,2.19449574581754,46.437805,821.766541,124.006012,130.277451,1178.747803,-62.907478,"COMBO"
170,17,23,30.436,6073.7,-0.410883,0.386671,-0.569605,0.597671,-0.9145,0.36225,-0.0572,6070.4,-0.042779,-0.722194,-0.005846,-0.690342,-0.98455,0.043,0.04112,2.33,2.48,2.59,2.91,2.98,3.03,2.84,3.9,3.01,3.94,4,3.82,3.9,3.87,3.73,2900,12.083333,62610.437333,93.256058,936.40509,-239.114044,1.69406529269945,2.50247883143269,2.19404227028841,46.443474,821.754822,124.035515,130.368637,1178.664307,-62.941559,"COMBO"
171,17,23,30.448,6073.72,-0.410944,0.386652,-0.569615,0.597632,-0.91324,0.36243,-0.05633,6070.42,-0.042803,-0.722289,-0.006032,-0.690239,-0.98438,0.04443,0.04133,2.33,2.48,2.59,2.91,2.98,3.03,2.84,3.9,3.01,3.94,4,3.82,3.9,3.87,3.73,2903,12.095833,62610.449833,93.225098,936.361328,-239.085739,1.69422240675337,2.50257848846912,2.19390111943035,46.444855,821.755066,124.046165,130.384674,1178.638062,-62.948158,"COMBO"
172,17,23,30.473,6073.74,-0.410987,0.386637,-0.569592,0.597635,-0.91495,0.36065,-0.05347,6070.44,-0.042865,-0.722391,-0.006233,-0.690127,-0.98757,0.04571,0.04025,2.33,2.48,2.59,2.91,2.98,3.03,2.84,3.9,3.01,3.94,4,3.82,3.9,3.87,3.73,2909,12.120833,62610.474833,93.158043,936.277222,-239.029602,1.6946301665229,2.50280090442771,2.19357111677183,46.453079,821.744324,124.064651,130.440094,1178.596191,-62.971317,"COMBO"
173,17,23,30.482,6073.76,-0.411006,0.386628,-0.569549,0.597668,-0.91509,0.36075,-0.05612,6070.46,-0.042843,-0.722449,-0.006452,-0.690065,-0.98793,0.04499,0.03746,2.33,2.48,2.59,2.91,2.98,3.03,2.84,3.9,3.01,3.94,4,3.82,3.9,3.87,3.73,2911,12.129167,62610.483167,93.137039,936.257751,-239.014328,1.6947391394259,2.50283744954086,2.19350599047057,46.447853,821.750488,124.066307,130.451065,1178.578979,-62.975147,"COMBO"
174,17,23,30.51,6073.78,-0.411017,0.386633,-0.569521,0.597683,-0.91603,0.36147,-0.05556,6070.48,-0.042878,-0.722553,-0.006638,-0.689952,-0.98992,0.04543,0.03857,2.33,2.48,2.59,2.91,2.98,3.03,2.84,3.9,3.01,3.94,4,3.82,3.9,3.87,3.73,2918,12.158333,62610.512333,93.084908,936.215149,-238.980103,1.69507430422036,2.5029143793028,2.19334135729243,46.444813,821.742188,124.084213,130.499481,1178.55127,-62.980526,"COMBO"
175,17,23,30.531,6073.8,-0.411029,0.386655,-0.569509,0.597673,-0.91607,0.36056,-0.05399,6070.5,-0.04286,-0.722624,-0.006806,-0.689878,-0.98914,0.04447,0.0392,2.33,2.48,2.59,2.91,2.98,3.03,2.84,3.9,3.01,3.94,4,3.82,3.9,3.87,3.73,2923,12.179167,62610.533167,93.054512,936.202576,-238.967163,1.69529147566245,2.50288852696346,2.19331103963573,46.439568,821.747131,124.083618,130.534866,1178.538818,-62.971554,"COMBO"
176,17,23,30.536,6073.82,-0.41107,0.386654,-0.569472,0.59768,-0.91589,0.36101,-0.05542,6070.52,-0.042904,-0.722717,-0.006905,-0.689776,-0.98826,0.04449,0.03809,2.33,2.48,2.59,2.91,2.98,3.03,2.84,3.9,3.01,3.94,4,3.81,3.9,3.87,3.73,2924,12.183333,62610.537333,93.045937,936.206421,-238.962463,1.69535814463366,2.50288050104258,2.19330180358854,46.448452,821.73999,124.077003,130.545868,1178.538696,-62.970951,"COMBO"
177,17,23,30.571,6073.84,-0.411111,0.386644,-0.569459,0.597671,-0.91548,0.3606,-0.05568,6070.54,-0.042972,-0.722787,-0.006959,-0.689698,-0.98805,0.04492,0.03803,2.33,2.48,2.59,2.91,2.98,3.03,2.84,3.9,3.01,3.94,4,3.81,3.9,3.87,3.73,2933,12.220833,62610.574833,93.009506,936.210327,-238.941116,1.69558291082982,2.50280680139722,2.19331772730917,46.449158,821.729919,124.082672,130.577011,1178.531006,-62.944489,"COMBO"
178,17,23,30.576,6073.86,-0.411162,0.386692,-0.569509,0.597557,-0.91633,0.36011,-0.05396,6070.56,-0.042905,-0.722744,-0.006941,-0.689748,-0.98694,0.04543,0.03763,2.33,2.48,2.59,2.91,2.98,3.03,2.84,3.9,3.01,3.94,4,3.82,3.9,3.87,3.73,2934,12.225,62610.579,93.006897,936.212219,-238.939026,1.69557847861261,2.50276926203083,2.19335681459616,46.454666,821.725891,124.080467,130.573242,1178.527222,-62.93203,"COMBO"
179,17,23,30.613,6073.88,-0.411169,0.386719,-0.569473,0.597569,-0.91499,0.36087,-0.05586,6070.58,-0.04295,-0.722774,-0.006887,-0.689714,-0.98483,0.04354,0.03877,2.33,2.48,2.59,2.91,2.98,3.03,2.84,3.9,3.01,3.94,4,3.81,3.9,3.87,3.73,2943,12.2625,62610.6165,92.969566,936.223083,-238.935638,1.69564798038663,2.50261198191692,2.19349761663506,46.447197,821.713501,124.08342,130.555588,1178.502441,-62.899448,"COMBO"
180,17,23,30.618,6073.9,-0.4111,0.386722,-0.56945,0.597637,-0.91605,0.36143,-0.05315,6070.6,-0.042944,-0.722774,-0.006935,-0.689714,-0.98263,0.04358,0.04006,2.33,2.48,2.59,2.91,2.98,3.03,2.84,3.9,3.01,3.94,4,3.82,3.9,3.87,3.73,2944,12.266667,62610.620667,92.965569,936.226196,-238.939606,1.69566222071135,2.50254603429003,2.19356053948449,46.445473,821.716003,124.085022,130.555832,1178.49353,-62.8881,"COMBO"
181,17,23,30.653,6073.92,-0.411096,0.386757,-0.569433,0.597633,-0.91507,0.36044,-0.05613,6070.62,-0.043032,-0.722753,-0.006839,-0.689731,-0.98181,0.04269,0.03979,2.33,2.48,2.59,2.91,2.98,3.03,2.84,3.9,3,3.94,4,3.81,3.9,3.87,3.73,2952,12.3,62610.654,92.940529,936.183044,-238.927811,1.69558712768847,2.50250411201276,2.19362247910694,46.427349,821.680542,124.089165,130.508423,1178.443604,-62.860558,"COMBO"
182,17,23,30.658,6073.94,-0.411119,0.386768,-0.569423,0.59762,-0.91612,0.36021,-0.0553,6070.64,-0.043086,-0.722733,-0.006699,-0.68975,-0.98431,0.04187,0.03678,2.33,2.48,2.59,2.91,2.97,3.03,2.84,3.9,3,3.94,4,3.82,3.9,3.87,3.73,2953,12.304167,62610.658167,92.935692,936.17865,-238.927078,1.69558176866955,2.50249154139085,2.19363657769548,46.431278,821.672852,124.093246,130.502029,1178.437256,-62.856144,"COMBO"
183,17,23,30.69,6073.96,-0.411076,0.386756,-0.569448,0.597633,-0.91574,0.36129,-0.05723,6070.66,-0.042978,-0.722629,-0.006576,-0.689868,-0.98537,0.04154,0.03772,2.33,2.48,2.59,2.91,2.98,3.03,2.84,3.9,3,3.94,4,3.81,3.9,3.87,3.73,2961,12.3375,62610.6915,92.929749,936.133728,-238.923996,1.69540417191078,2.50247512899537,2.19369941701139,46.407646,821.64386,124.11264,130.442902,1178.389404,-62.837639,"COMBO"
184,17,23,30.711,6073.98,-0.411088,0.386756,-0.569475,0.5976,-0.91368,0.35829,-0.05443,6070.68,-0.042927,-0.722583,-0.006396,-0.689921,-0.98383,0.04337,0.04089,2.33,2.48,2.59,2.91,2.98,3.03,2.84,3.9,3,3.94,4,3.82,3.9,3.87,3.73,2966,12.358333,62610.712333,92.919289,936.107666,-238.914459,1.69538015663477,2.50246910982306,2.19371174855313,46.387455,821.624451,124.111595,130.424652,1178.358398,-62.827885,"COMBO"
185,17,23,30.717,6074,-0.411112,0.386783,-0.569523,0.597519,-0.91603,0.35953,-0.05661,6070.7,-0.042795,-0.722562,-0.006378,-0.68995,-0.98605,0.04199,0.0395,2.33,2.48,2.59,2.91,2.97,3.03,2.84,3.9,3,3.94,4,3.82,3.89,3.87,3.73,2968,12.366667,62610.720667,92.918633,936.102173,-238.916061,1.69537251055006,2.50244363854208,2.19373947410174,46.373756,821.62384,124.114304,130.421509,1178.347046,-62.823616,"COMBO"
186,17,23,30.754,6074.02,-0.411113,0.386804,-0.569544,0.597485,-0.91745,0.36063,-0.05629,6070.72,-0.042763,-0.722566,-0.006264,-0.689949,-0.98682,0.04128,0.03835,2.33,2.48,2.59,2.91,2.97,3.03,2.84,3.9,3,3.94,4,3.82,3.89,3.87,3.73,2976,12.4,62610.754,92.911324,936.070435,-238.884491,1.69525039446167,2.50240297131806,2.1938123214938,46.354118,821.606018,124.123329,130.377533,1178.307373,-62.774635,"COMBO"
187,17,23,30.763,6074.04,-0.411077,0.386838,-0.569566,0.597466,-0.91549,0.36154,-0.05559,6070.74,-0.042798,-0.722559,-0.006247,-0.689955,-0.98737,0.04206,0.03875,2.33,2.48,2.59,2.91,2.97,3.03,2.84,3.9,3,3.94,4,3.82,3.9,3.87,3.73,2979,12.4125,62610.7665,92.905022,936.049988,-238.868317,1.69518866540337,2.50246705453055,2.19376361601869,46.3447,821.606323,124.12706,130.352234,1178.295166,-62.772797,"COMBO"
188,17,23,30.792,6074.06,-0.411122,0.38692,-0.569635,0.597317,-0.91556,0.36162,-0.05401,6070.76,-0.042548,-0.722483,-0.006527,-0.690048,-0.9816,0.04231,0.03802,2.33,2.48,2.59,2.91,2.97,3.03,2.84,3.9,3,3.94,4,3.82,3.9,3.87,3.73,2986,12.441667,62610.795667,92.906189,935.977417,-238.846375,1.69507127606013,2.50267200111752,2.19358703399565,46.346249,821.584229,124.117477,130.319305,1178.266357,-62.78915,"COMBO"
189,17,23,30.797,6074.08,-0.411135,0.386925,-0.569649,0.597292,-0.91607,0.36208,-0.05228,6070.78,-0.042447,-0.722502,-0.006484,-0.690034,-0.9796,0.04231,0.03959,2.33,2.48,2.59,2.91,2.97,3.03,2.84,3.9,3,3.94,4,3.82,3.9,3.87,3.73,2987,12.445833,62610.799833,92.914024,935.965881,-238.846252,1.69504337976079,2.50269039020106,2.19357569581584,46.339863,821.589783,124.121536,130.318359,1178.255371,-62.793812,"COMBO"
190,17,23,30.832,6074.1,-0.411193,0.386993,-0.569693,0.597166,-0.91678,0.3606,-0.05387,6070.8,-0.042159,-0.722501,-0.006474,-0.690053,-0.98342,0.03957,0.03795,2.33,2.48,2.59,2.91,2.97,3.03,2.84,3.9,3,3.94,4,3.82,3.9,3.87,3.73,2995,12.479167,62610.833167,92.927162,935.85553,-238.810989,1.69507032841862,2.50306553392628,2.19318966595403,46.335537,821.56842,124.115082,130.339493,1178.212036,-62.853554,"COMBO"
191,17,23,30.837,6074.12,-0.411215,0.386988,-0.569743,0.597106,-0.91697,0.35857,-0.0534,6070.82,-0.042161,-0.722544,-0.006616,-0.690007,-0.98715,0.046,0.03664,2.33,2.48,2.59,2.91,2.98,3.03,2.84,3.9,2.99,3.94,4,3.82,3.9,3.87,3.73,2996,12.483333,62610.837333,92.932259,935.837952,-238.808914,1.69505966758954,2.50313684383758,2.19312038355478,46.331726,821.572144,124.11795,130.3423,1178.213135,-62.864223,"COMBO"
192,17,23,30.872,6074.14,-0.411195,0.386993,-0.569766,0.597095,-0.91659,0.36026,-0.05561,6070.84,-0.042097,-0.722555,-0.006737,-0.689997,-0.98856,0.04822,0.03762,2.33,2.48,2.59,2.91,2.98,3.03,2.84,3.9,3,3.94,4,3.82,3.9,3.87,3.73,3005,12.520833,62610.874833,92.981911,935.759644,-238.829529,1.69493471485828,2.50346073583897,2.19282555882978,46.336201,821.588379,124.105904,130.354233,1178.191162,-62.958538,"COMBO"
193,17,23,30.881,6074.16,-0.411124,0.387086,-0.569906,0.596949,-0.91602,0.36129,-0.05118,6070.86,-0.041826,-0.722559,-0.006756,-0.69001,-0.99098,0.04208,0.04004,2.33,2.48,2.59,2.91,2.98,3.02,2.84,3.9,2.99,3.94,4,3.82,3.9,3.87,3.73,3007,12.529167,62610.883167,92.994247,935.751892,-238.837738,1.69490423146169,2.50349042104642,2.19280347349314,46.329391,821.600647,124.097488,130.357529,1178.189331,-62.971741,"COMBO"
194,17,23,30.913,6074.18,-0.411101,0.387077,-0.56989,0.596986,-0.91621,0.36217,-0.05484,6070.88,-0.041642,-0.722593,-0.006722,-0.689986,-0.98493,0.04018,0.04752,2.32,2.48,2.59,2.91,2.97,3.03,2.84,3.9,2.99,3.94,4,3.82,3.9,3.87,3.73,3015,12.5625,62610.9165,92.941467,935.715454,-238.855453,1.69501908666276,2.50368640913232,2.19257563598379,46.346577,821.62262,124.060165,130.339203,1178.188477,-63.045094,"COMBO"
195,17,23,30.918,6074.2,-0.411035,0.387133,-0.569966,0.596923,-0.92086,0.36168,-0.05472,6070.9,-0.041678,-0.722649,-0.006894,-0.689923,-0.98462,0.04463,0.04457,2.32,2.48,2.59,2.91,2.97,3.03,2.84,3.9,2.99,3.94,4,3.82,3.9,3.87,3.73,3016,12.566667,62610.920667,92.93071,935.709473,-238.854446,1.69509100551388,2.5037149384222,2.19252812771389,46.348202,821.618408,124.058464,130.350174,1178.188843,-63.054859,"COMBO"
196,17,23,30.953,6074.22,-0.411073,0.38712,-0.569975,0.596897,-0.91748,0.35934,-0.05116,6070.92,-0.041758,-0.722678,-0.007063,-0.689886,-0.98875,0.0456,0.03911,2.32,2.48,2.59,2.91,2.97,3.03,2.84,3.9,2.99,3.94,4,3.82,3.89,3.87,3.73,3024,12.6,62610.954,92.836067,935.69928,-238.87056,1.69510910244989,2.50389097162468,2.19234555216138,46.369396,821.639893,124.029045,130.259262,1178.199341,-63.123703,"COMBO"
197,17,23,30.961,6074.24,-0.411127,0.387073,-0.570014,0.596853,-0.91617,0.35964,-0.05219,6070.94,-0.041838,-0.722643,-0.007142,-0.689918,-0.99003,0.04422,0.0387,2.32,2.48,2.59,2.91,2.98,3.03,2.84,3.9,2.99,3.94,4,3.82,3.9,3.87,3.73,3026,12.608333,62610.962333,92.819954,935.69928,-238.876862,1.69506500363928,2.50390147407148,2.19234639930843,46.376328,821.644348,124.016617,130.231628,1178.212158,-63.121876,"COMBO"
198,17,23,30.993,6074.26,-0.411114,0.387055,-0.570069,0.596821,-0.91715,0.36225,-0.05259,6070.96,-0.041776,-0.722511,-0.007174,-0.690058,-0.98832,0.04128,0.03775,2.32,2.48,2.59,2.91,2.97,3.03,2.84,3.9,2.99,3.94,4,3.82,3.9,3.87,3.73,3034,12.641667,62610.995667,92.813217,935.764099,-238.947311,1.69469414884192,2.50371400468906,2.19263202285208,46.378979,821.647278,123.998627,130.113159,1178.239014,-63.125343,"COMBO"
199,17,23,31.001,6074.28,-0.411125,0.387054,-0.570106,0.596779,-0.91645,0.36161,-0.05242,6070.98,-0.041786,-0.722409,-0.00695,-0.690167,-0.99367,0.03765,0.03353,2.32,2.48,2.59,2.91,2.97,3.03,2.85,3.9,2.99,3.94,4,3.82,3.9,3.87,3.73,3036,12.65,62611.004,92.834885,935.792236,-238.967148,1.69452821727911,2.50366022009025,2.19272931139731,46.377998,821.641663,124.000153,130.084991,1178.256592,-63.12196,"COMBO"
200,17,23,31.032,6074.3,-0.411065,0.387063,-0.570156,0.596766,-0.91425,0.36124,-0.05441,6071,-0.041533,-0.722202,-0.006568,-0.690403,-1.00127,0.02771,0.02855,2.32,2.48,2.59,2.91,2.97,3.03,2.84,3.9,2.99,3.94,4,3.82,3.9,3.87,3.73,3043,12.679167,62611.033167,93.074173,935.945618,-239.0728,1.69320470845124,2.50323949303237,2.1934947694185,46.338787,821.628662,124.035034,129.924774,1178.314209,-63.054501,"COMBO"
201,17,23,31.037,6074.32,-0.411043,0.387097,-0.57018,0.596736,-0.91314,0.36182,-0.05723,6071.02,-0.040902,-0.721967,-0.005876,-0.690693,-1.00666,0.0264,0.01824,2.32,2.48,2.59,2.91,2.97,3.03,2.84,3.9,2.99,3.94,4,3.82,3.9,3.87,3.73,3044,12.683333,62611.037333,93.134758,935.973938,-239.094681,1.6929444619646,2.5031581902468,2.19364338792667,46.333252,821.624634,124.046074,129.907288,1178.327148,-63.040501,"COMBO"
202,17,23,31.073,6074.34,-0.411007,0.387133,-0.57019,0.596729,-0.91378,0.36225,-0.05613,6071.04,-0.039587,-0.721555,-0.004636,-0.691208,-1.00623,0.03111,0.01065,2.32,2.48,2.59,2.91,2.97,3.03,2.84,3.9,2.99,3.94,4,3.81,3.9,3.87,3.73,3053,12.720833,62611.074833,93.706581,936.657043,-239.782166,1.69041488571396,2.50025570704392,2.19721235448935,46.238468,821.596252,124.106979,129.72171,1178.490234,-62.852047,"COMBO"
203,17,23,31.078,6074.36,-0.410922,0.387202,-0.570093,0.596835,-0.91321,0.36056,-0.05959,6071.06,-0.037711,-0.72104,-0.002851,-0.69186,-0.99147,0.0419,0.01791,2.32,2.48,2.59,2.92,2.97,3.03,2.84,3.9,2.99,3.94,4,3.81,3.9,3.87,3.73,3054,12.725,62611.079,93.826736,936.714233,-239.831131,1.6899451596518,2.50006039547349,2.1975264312564,46.218063,821.597046,124.115852,129.700882,1178.51062,-62.825352,"COMBO"
204,17,23,31.111,6074.38,-0.410755,0.387359,-0.570019,0.596918,-0.9152,0.36227,-0.05976,6071.08,-0.03577,-0.720465,-0.000843,-0.692567,-0.98206,0.05493,0.01995,2.32,2.48,2.59,2.91,2.97,3.03,2.84,3.9,2.99,3.94,4,3.81,3.9,3.87,3.73,3062,12.758333,62611.112333,95.013145,936.672668,-239.667404,1.68548405467426,2.50098519734516,2.19768130169493,46.084618,821.554871,124.149086,129.548798,1178.626709,-62.63055,"COMBO"
205,17,23,31.116,6074.4,-0.410596,0.387538,-0.569903,0.597022,-0.91732,0.36086,-0.05676,6071.1,-0.034064,-0.719795,0.001085,-0.693349,-0.97524,0.04815,0.02157,2.32,2.48,2.58,2.91,2.97,3.03,2.84,3.9,2.99,3.94,4,3.82,3.9,3.87,3.73,3063,12.7625,62611.1165,95.112015,936.687927,-239.686569,1.68510116191518,2.50095036120343,2.19780790722764,46.059639,821.547607,124.153137,129.533401,1178.639404,-62.616051,"COMBO"
206,17,23,31.151,6074.42,-0.410428,0.387744,-0.569828,0.597076,-0.91652,0.35695,-0.05556,6071.12,-0.032699,-0.719092,0.002686,-0.69414,-0.97658,0.04178,0.02265,2.32,2.48,2.59,2.91,2.97,3.03,2.84,3.9,2.99,3.94,4,3.82,3.9,3.87,3.73,3072,12.8,62611.154,96.076988,936.84906,-239.885391,1.68140817431074,2.5003912060552,2.1992380282669,45.928436,821.476013,124.118111,129.392166,1178.708862,-62.458782,"COMBO"
207,17,23,31.156,6074.44,-0.410301,0.387916,-0.569792,0.597086,-0.91462,0.35634,-0.05141,6071.14,-0.031583,-0.718319,0.004035,-0.694985,-0.98232,0.04187,0.02319,2.32,2.48,2.59,2.91,2.97,3.03,2.84,3.9,2.99,3.94,4,3.82,3.9,3.87,3.73,3073,12.804167,62611.158167,96.173622,936.846619,-239.897797,1.68103116545949,2.50038771226381,2.19932837631072,45.912159,821.46991,124.118881,129.37645,1178.711182,-62.445175,"COMBO"
208,17,23,31.191,6074.46,-0.41017,0.388097,-0.569832,0.59702,-0.9167,0.35726,-0.04979,6071.16,-0.030571,-0.717609,0.00533,-0.695754,-0.97231,0.04656,0.02351,2.32,2.48,2.58,2.91,2.97,3.03,2.84,3.9,2.99,3.94,4,3.81,3.9,3.87,3.73,3081,12.8375,62611.1915,96.998718,936.847473,-240.016464,1.6778791828984,2.5002498613889,2.2001815626205,45.821609,821.417969,124.099434,129.260376,1178.721069,-62.330696,"COMBO"
209,17,23,31.196,6074.48,-0.410102,0.388218,-0.569888,0.596935,-0.91614,0.35924,-0.04893,6071.18,-0.029793,-0.716896,0.006614,-0.696512,-0.98453,0.0497,0.01831,2.32,2.48,2.59,2.91,2.97,3.03,2.84,3.9,2.99,3.94,4,3.82,3.9,3.87,3.73,3083,12.845833,62611.199833,97.198486,936.842407,-240.038712,1.67711277528662,2.50022243941422,2.20037972328189,45.803883,821.402161,124.10482,129.2323,1178.727539,-62.292477,"COMBO"
210,17,23,31.232,6074.5,-0.410045,0.388238,-0.570008,0.596846,-0.91675,0.3614,-0.04846,6071.2,-0.029058,-0.715933,0.00807,-0.697517,-0.99951,0.04639,0.01299,2.31,2.48,2.58,2.91,2.97,3.03,2.84,3.9,2.99,3.94,4,3.82,3.9,3.87,3.73,3091,12.879167,62611.233167,98.114792,936.923767,-240.180405,1.67364991617842,2.49976894022162,2.20159156962025,45.726974,821.365601,124.138351,129.110779,1178.741089,-62.128216,"COMBO"
211,17,23,31.24,6074.52,-0.410045,0.388297,-0.570087,0.596733,-0.91638,0.36286,-0.04822,6071.22,-0.028611,-0.715014,0.009457,-0.69846,-0.98964,0.04792,0.0147,2.31,2.48,2.58,2.91,2.97,3.03,2.85,3.9,2.99,3.94,4,3.82,3.9,3.87,3.73,3093,12.8875,62611.2415,98.336388,936.948547,-240.220413,1.67281787852868,2.49961942139049,2.20191977897516,45.71125,821.346313,124.150421,129.082062,1178.735352,-62.09079,"COMBO"
212,17,23,31.272,6074.54,-0.410035,0.388382,-0.570152,0.596621,-0.91638,0.36694,-0.05087,6071.24,-0.028342,-0.714032,0.010942,-0.699453,-0.9858,0.04987,0.01662,2.31,2.48,2.58,2.91,2.97,3.03,2.85,3.9,2.99,3.94,4,3.82,3.9,3.87,3.73,3101,12.920833,62611.274833,99.175934,937.142334,-240.421066,1.6696552496442,2.49863388564526,2.20357364074008,45.625412,821.293152,124.228935,128.968994,1178.729248,-61.904564,"COMBO"
213,17,23,31.277,6074.56,-0.409992,0.388444,-0.570233,0.596533,-0.91425,0.36415,-0.05221,6071.26,-0.028507,-0.713039,0.012545,-0.700432,-0.96242,0.04651,0.01958,2.31,2.48,2.58,2.91,2.97,3.03,2.84,3.9,2.99,3.94,4,3.82,3.9,3.87,3.73,3102,12.925,62611.279,99.272171,937.178284,-240.453796,1.66930795260588,2.49846096796674,2.20381902446836,45.611828,821.294189,124.23732,128.959824,1178.725098,-61.884075,"COMBO"
214,17,23,31.312,6074.58,-0.409989,0.388519,-0.570314,0.59641,-0.91403,0.36217,-0.05174,6071.28,-0.029163,-0.712088,0.01428,-0.701339,-0.99937,0.04599,0.01104,2.31,2.48,2.58,2.91,2.97,3.03,2.84,3.9,2.99,3.94,4,3.82,3.9,3.87,3.73,3110,12.958333,62611.312333,100.016769,937.444458,-240.701584,1.66660484616542,2.49708155466229,2.20575349469172,45.538185,821.254089,124.353806,128.888992,1178.713379,-61.682163,"COMBO"
215,17,23,31.317,6074.6,-0.409954,0.388573,-0.570441,0.596277,-0.91523,0.36292,-0.05305,6071.3,-0.030412,-0.711046,0.016212,-0.7023,-0.99381,0.06914,0.00766,2.31,2.48,2.58,2.91,2.97,3.02,2.84,3.9,2.99,3.94,4,3.82,3.9,3.87,3.73,3112,12.966667,62611.320667,100.200249,937.548889,-240.778427,1.66592178185798,2.49657983965875,2.20639376551849,45.516876,821.245972,124.393166,128.866135,1178.717407,-61.610443,"COMBO"
216,17,23,31.353,6074.62,-0.409975,0.388635,-0.570531,0.596137,-0.91736,0.36363,-0.04872,6071.32,-0.031985,-0.709588,0.018427,-0.70365,-1.00731,0.10243,-0.00405,2.31,2.48,2.58,2.91,2.97,3.03,2.84,3.9,2.99,3.94,4,3.82,3.9,3.87,3.73,3120,13,62611.354,100.920006,938.090454,-241.084473,1.66313820549388,2.49412492313578,2.20940444650713,45.44442,821.183167,124.599991,128.741013,1178.739502,-61.240894,"COMBO"
217,17,23,31.361,6074.64,-0.41,0.388722,-0.570573,0.596022,-0.91647,0.36356,-0.05209,6071.34,-0.03383,-0.707791,0.021263,-0.705291,-1.0165,0.09945,-0.01751,2.31,2.48,2.58,2.91,2.97,3.02,2.85,3.9,2.98,3.94,4,3.82,3.9,3.87,3.73,3122,13.008333,62611.362333,101.129967,938.266968,-241.187027,1.66231522154927,2.49333824406092,2.21035230952022,45.422825,821.165588,124.656212,128.702087,1178.758545,-61.124565,"COMBO"
218,17,23,31.393,6074.66,-0.409886,0.388814,-0.570627,0.595989,-0.9133,0.36417,-0.05047,6071.36,-0.035907,-0.70576,0.024693,-0.70711,-1.01763,0.0964,-0.02645,2.31,2.48,2.58,2.91,2.97,3.02,2.85,3.9,2.98,3.94,4,3.82,3.9,3.87,3.73,3130,13.041667,62611.395667,102.150467,939.226685,-241.707047,1.65841463747624,2.48934131071063,2.21509297098187,45.314415,821.077393,124.885292,128.540527,1178.897461,-60.567677,"COMBO"
219,17,23,31.401,6074.68,-0.40982,0.389018,-0.570581,0.595945,-0.91312,0.36421,-0.05083,6071.38,-0.038333,-0.703395,0.028385,-0.709197,-1.01712,0.11717,-0.04356,2.31,2.48,2.58,2.91,2.97,3.03,2.85,3.9,2.98,3.94,4,3.82,3.9,3.87,3.73,3132,13.05,62611.404,102.459793,939.527771,-241.873016,1.65727543919846,2.48816409713384,2.21648074568505,45.280975,821.039978,124.933723,128.505234,1178.961182,-60.415653,"COMBO"
220,17,23,31.434,6074.7,-0.409722,0.38929,-0.570489,0.595923,-0.91441,0.36196,-0.05089,6071.4,-0.040981,-0.700808,0.032535,-0.711428,-1.00092,0.12301,-0.05532,2.31,2.48,2.58,2.91,2.97,3.02,2.85,3.9,2.98,3.94,4,3.82,3.9,3.87,3.73,3140,13.083333,62611.437333,104.378929,941.182983,-243.011429,1.65075980114391,2.48143718667285,2.22435438869763,45.071831,820.913452,125.128181,128.455765,1179.272949,-59.744106,"COMBO"
221,17,23,31.439,6074.72,-0.409597,0.389568,-0.570416,0.595897,-0.91663,0.35716,-0.05472,6071.42,-0.043571,-0.698083,0.037694,-0.713695,-1.00753,0.13246,-0.0531,2.31,2.48,2.58,2.92,2.97,3.03,2.85,3.9,2.98,3.94,4,3.82,3.9,3.87,3.73,3141,13.0875,62611.4415,104.630112,941.404968,-243.170135,1.64996209161527,2.48055138834151,2.22537411525798,45.041485,820.897644,125.147507,128.466537,1179.323853,-59.664478,"COMBO"
222,17,23,31.473,6074.74,-0.409467,0.389869,-0.570373,0.595831,-0.91736,0.35447,-0.053,6071.44,-0.0462,-0.695089,0.043743,-0.716102,-1.01922,0.16682,-0.06335,2.31,2.48,2.58,2.92,2.97,3.02,2.85,3.9,2.99,3.94,4,3.82,3.9,3.87,3.73,3149,13.120833,62611.474833,106.76886,943.372803,-244.539795,1.64303733638197,2.47276158426013,2.23426592041828,44.783657,820.779053,125.238281,128.512085,1179.712646,-59.017628,"COMBO"
223,17,23,31.478,6074.76,-0.409336,0.390187,-0.57034,0.595744,-0.91724,0.35369,-0.05352,6071.46,-0.049005,-0.691737,0.050591,-0.718707,-0.9835,0.16778,-0.07814,2.31,2.48,2.58,2.92,2.97,3.03,2.85,3.9,2.99,3.94,4,3.82,3.9,3.87,3.73,3150,13.125,62611.479,107.063721,943.663452,-244.759232,1.64207851866737,2.47157446931652,2.23559735089278,44.747162,820.767456,125.242264,128.51651,1179.755615,-58.941513,"COMBO"
224,17,23,31.513,6074.78,-0.40914,0.390571,-0.570338,0.595628,-0.91704,0.35217,-0.04907,6071.48,-0.053137,-0.687928,0.056889,-0.721593,-1.02447,0.19484,-0.09239,2.31,2.48,2.58,2.92,2.97,3.03,2.85,3.9,2.98,3.94,4,3.82,3.9,3.87,3.73,3159,13.1625,62611.5165,109.638489,946.241333,-246.578842,1.63336002765901,2.46139053901804,2.24699772526726,44.417007,820.641663,125.242371,128.456131,1180.230713,-58.220074,"COMBO"
225,17,23,31.518,6074.8,-0.409016,0.390924,-0.570345,0.595475,-0.92156,0.35132,-0.04531,6071.5,-0.057849,-0.683694,0.063229,-0.724719,-0.99575,0.18222,-0.07748,2.31,2.48,2.58,2.92,2.97,3.02,2.85,3.9,2.99,3.94,4,3.82,3.9,3.87,3.73,3160,13.166667,62611.520667,109.96965,946.55658,-246.811615,1.63223229975925,2.46017090207608,2.2483622679078,44.390793,820.619873,125.243988,128.44693,1180.294678,-58.149036,"COMBO"
226,17,23,31.553,6074.82,-0.408892,0.391201,-0.570431,0.595296,-0.91968,0.35093,-0.04417,6071.52,-0.062494,-0.679192,0.07055,-0.727884,-0.99848,0.19952,-0.07596,2.31,2.48,2.58,2.92,2.97,3.03,2.85,3.9,2.99,3.94,4,3.82,3.9,3.87,3.73,3168,13.2,62611.554,112.958778,949.29895,-248.718063,1.62238842763101,2.44959072413629,2.26009039407039,44.135994,820.508911,125.234512,128.460785,1180.75647,-57.534988,"COMBO"
227,17,23,31.561,6074.84,-0.408874,0.391402,-0.570563,0.59505,-0.91861,0.35446,-0.04234,6071.54,-0.067542,-0.674664,0.077854,-0.730893,-1.00192,0.22627,-0.07591,2.31,2.48,2.58,2.92,2.97,3.03,2.85,3.9,2.99,3.94,4,3.82,3.9,3.87,3.73,3170,13.208333,62611.562333,113.565567,950.030579,-249.150925,1.62043245560424,2.44688161061845,2.26300343319901,44.079964,820.477234,125.240875,128.474243,1180.873047,-57.371471,"COMBO"
228,17,23,31.593,6074.86,-0.408843,0.391619,-0.570759,0.594741,-0.91626,0.35775,-0.04013,6071.56,-0.072706,-0.669786,0.085852,-0.733982,-0.99152,0.25047,-0.0825,2.31,2.48,2.58,2.91,2.97,3.02,2.85,3.9,2.99,3.94,4,3.82,3.9,3.87,3.73,3178,13.241667,62611.595667,115.432808,953.028198,-251.131836,1.61432134269677,2.43533058571488,2.27514060907119,43.874798,820.369629,125.264984,128.497437,1181.462769,-56.704178,"COMBO"
229,17,23,31.601,6074.88,-0.408807,0.391824,-0.570889,0.594505,-0.91793,0.35852,-0.04112,6071.58,-0.078551,-0.664533,0.094159,-0.737129,-1.00448,0.29147,-0.09889,2.31,2.48,2.58,2.92,2.97,3.02,2.85,3.9,2.99,3.94,4,3.82,3.9,3.87,3.73,3180,13.25,62611.604,116.028236,953.910461,-251.612961,1.61250290347153,2.43227973261711,2.27835001583287,43.819794,820.347107,125.281258,128.542633,1181.663452,-56.525642,"COMBO"
230,17,23,31.633,6074.9,-0.40877,0.391983,-0.571079,0.594243,-0.91989,0.35943,-0.04117,6071.6,-0.085417,-0.658813,0.102664,-0.740357,-1.03191,0.30357,-0.12163,2.31,2.48,2.58,2.92,2.97,3.03,2.85,3.9,2.99,3.94,4,3.82,3.9,3.87,3.73,3187,13.279167,62611.633167,118.110016,957.635193,-253.550385,1.60606618393713,2.41948347405167,2.29165182973401,43.689941,820.262756,125.343773,128.676956,1182.507568,-55.763412,"COMBO"
231,17,23,31.638,6074.92,-0.408737,0.392186,-0.571248,0.593969,-0.91818,0.36189,-0.03966,6071.62,-0.092327,-0.65298,0.111496,-0.743412,-1.02234,0.343,-0.13705,2.31,2.48,2.58,2.92,2.97,3.02,2.85,3.9,2.99,3.94,4,3.82,3.9,3.87,3.73,3189,13.2875,62611.6415,118.726677,958.897156,-254.18895,1.60413457894995,2.41500416142861,2.29626591303531,43.650543,820.2547,125.367699,128.708801,1182.738281,-55.491219,"COMBO"
232,17,23,31.674,6074.94,-0.408701,0.392402,-0.571399,0.593707,-0.91506,0.36094,-0.03985,6071.64,-0.099379,-0.647361,0.120432,-0.746019,-0.97382,0.36511,-0.13168,2.31,2.48,2.58,2.92,2.97,3.03,2.85,3.9,2.99,3.94,4,3.82,3.9,3.87,3.73,3197,13.320833,62611.674833,121.153442,964.313904,-257.076721,1.59664638847924,2.39558791893986,2.31613087004639,43.547886,820.237488,125.425919,128.877899,1183.791992,-54.390671,"COMBO"
233,17,23,31.679,6074.96,-0.408614,0.392617,-0.571571,0.593459,-0.91879,0.36154,-0.03906,6071.66,-0.107804,-0.641635,0.129483,-0.748276,-0.95455,0.3934,-0.15325,2.31,2.48,2.58,2.92,2.97,3.03,2.85,3.9,2.99,3.94,4,3.82,3.9,3.87,3.73,3198,13.325,62611.679,118.012672,962.046509,-255.393478,1.60698593265636,2.40442277245791,2.30665080946279,43.538414,820.239258,125.436546,128.855331,1183.916138,-54.247131,"COMBO"
234,17,23,31.712,6074.98,-0.408623,0.392802,-0.571735,0.593173,-0.92536,0.36373,-0.03561,6071.68,-0.117119,-0.635618,0.138033,-0.75048,-0.94163,0.40421,-0.15824,2.31,2.48,2.58,2.92,2.97,3.03,2.85,3.9,2.99,3.94,4,3.82,3.9,3.87,3.73,3206,13.358333,62611.712333,119.431717,967.263306,-258.201904,1.60222977714529,2.38501290680435,2.32638663711828,43.474854,820.204956,125.483307,128.83107,1184.745728,-53.121925,"COMBO"
235,17,23,31.717,6075,-0.408715,0.392958,-0.571967,0.592782,-0.92207,0.35864,-0.03549,6071.7,-0.127756,-0.62931,0.146819,-0.752391,-0.91804,0.4168,-0.15001,2.31,2.48,2.58,2.92,2.97,3.03,2.85,3.9,2.99,3.94,4,3.82,3.9,3.87,3.73,3208,13.366667,62611.720667,119.679657,968.571655,-258.901581,1.60151171330034,2.38015870265524,2.33128601178964,43.457489,820.186707,125.498695,128.860474,1184.963379,-52.844765,"COMBO"
236,17,23,31.754,6075.02,-0.408946,0.393024,-0.5722,0.592354,-0.92036,0.35545,-0.03106,6071.72,-0.138435,-0.623217,0.156614,-0.753597,-0.90862,0.45082,-0.1469,2.31,2.48,2.58,2.92,2.97,3.02,2.85,3.9,2.99,3.94,4,3.81,3.9,3.87,3.73,3216,13.4,62611.754,120.552765,974.422607,-261.937134,1.59939170766535,2.35827117540767,2.35330032183029,43.396942,820.071472,125.595001,129.074951,1185.625244,-51.782608,"COMBO"
237,17,23,31.762,6075.04,-0.409284,0.393024,-0.572471,0.591857,-0.91347,0.35414,-0.03697,6071.74,-0.149365,-0.617355,0.167594,-0.753973,-0.916,0.48242,-0.16005,2.31,2.48,2.58,2.92,2.97,3.03,2.85,3.9,2.99,3.94,4,3.82,3.9,3.87,3.73,3218,13.408333,62611.762333,120.717247,976.026733,-262.742462,1.59905968197269,2.35233428792981,2.35925606867306,43.374763,820.054382,125.634178,129.132263,1185.771484,-51.539688,"COMBO"
238,17,23,31.793,6075.06,-0.409595,0.393054,-0.572721,0.59138,-0.90824,0.3558,-0.03864,6071.76,-0.16081,-0.61152,0.179225,-0.753699,-0.91131,0.5203,-0.17807,2.31,2.48,2.58,2.92,2.97,3.03,2.85,3.9,2.99,3.94,4,3.82,3.9,3.87,3.73,3226,13.441667,62611.795667,121.201782,983.139404,-266.23465,1.59846190835194,2.32627456398655,2.38534789010313,43.315472,820.041687,125.775787,129.404602,1186.456055,-50.528366,"COMBO"
239,17,23,31.802,6075.08,-0.409903,0.393111,-0.572972,0.590885,-0.91541,0.35716,-0.04053,6071.78,-0.172978,-0.60557,0.191355,-0.752826,-0.88736,0.53411,-0.20494,2.31,2.48,2.58,2.92,2.97,3.03,2.85,3.9,2.99,3.94,4,3.82,3.9,3.87,3.73,3228,13.45,62611.804,121.305161,985.088867,-267.148682,1.59842955953547,2.3191134402695,2.39251007795622,43.31237,820.04187,125.805679,129.488785,1186.61792,-50.245197,"COMBO"
240,17,23,31.834,6075.1,-0.410188,0.39317,-0.573212,0.590416,-0.92247,0.35936,-0.03676,6071.8,-0.185391,-0.599701,0.202911,-0.751543,-0.90344,0.55526,-0.20182,2.31,2.48,2.58,2.92,2.97,3.03,2.85,3.9,2.99,3.94,4,3.82,3.9,3.87,3.73,3236,13.483333,62611.837333,121.476166,993.492188,-270.69455,1.59944408354854,2.28924306557818,2.42231812640366,43.303844,820.065063,125.879837,129.910797,1187.314331,-49.172665,"COMBO"
241,17,23,31.839,6075.12,-0.410521,0.393188,-0.57342,0.58997,-0.92535,0.35791,-0.03378,6071.82,-0.197541,-0.593814,0.214585,-0.749878,-0.87347,0.56656,-0.19488,2.31,2.48,2.58,2.92,2.97,3.03,2.85,3.9,2.99,3.94,4,3.82,3.9,3.87,3.73,3237,13.4875,62611.8415,121.486595,994.628906,-271.131012,1.5995748386841,2.28526652854848,2.42628617606272,43.308346,820.067627,125.879478,129.952728,1187.408936,-49.0243,"COMBO"
242,17,23,31.875,6075.14,-0.410906,0.393127,-0.573581,0.589587,-0.92814,0.35268,-0.03165,6071.84,-0.209501,-0.588265,0.226915,-0.747371,-0.85151,0.57467,-0.19946,2.31,2.48,2.58,2.92,2.97,3.02,2.85,3.9,2.99,3.94,3.99,3.82,3.9,3.87,3.73,3246,13.525,62611.879,121.433495,1005.234253,-274.710571,1.60157984380304,2.24918470549303,2.46223503508414,43.35136,820.099121,125.831665,130.414291,1188.341675,-47.707539,"COMBO"
243,17,23,31.88,6075.16,-0.41131,0.393093,-0.57374,0.589173,-0.92252,0.34806,-0.02829,6071.86,-0.220588,-0.582987,0.240054,-0.744205,-0.83221,0.57486,-0.21225,2.31,2.48,2.58,2.92,2.97,3.03,2.85,3.9,2.99,3.94,3.99,3.82,3.89,3.87,3.73,3247,13.529167,62611.883167,121.40937,1006.418213,-275.03656,1.6018053851687,2.24525927738169,2.4661445130152,43.358044,820.106079,125.824257,130.446381,1188.439819,-47.55928,"COMBO"
244,17,23,31.913,6075.18,-0.411782,0.393004,-0.573878,0.588768,-0.92315,0.34602,-0.02867,6071.88,-0.231121,-0.577869,0.253198,-0.740636,-0.80324,0.56088,-0.21265,2.31,2.48,2.58,2.92,2.97,3.03,2.85,3.9,2.99,3.94,3.99,3.82,3.89,3.87,3.73,3255,13.5625,62611.9165,121.323631,1016.169678,-277.438812,1.60369345820642,2.21365598752642,2.49760603415156,43.444279,820.168091,125.727562,130.827194,1189.38501,-46.37149,"COMBO"
245,17,23,31.924,6075.2,-0.412284,0.392872,-0.574056,0.588331,-0.9255,0.34263,-0.02743,6071.9,-0.240766,-0.573106,0.265986,-0.736772,-0.75776,0.56534,-0.20229,2.31,2.48,2.58,2.92,2.97,3.03,2.85,3.9,2.99,3.94,3.98,3.82,3.89,3.87,3.73,3257,13.570833,62611.924833,121.232803,1018.537048,-277.919525,1.60452394204082,2.20598673711826,2.50521224475625,43.474953,820.180603,125.7043,130.95369,1189.577759,-46.076088,"COMBO"
246,17,23,31.954,6075.22,-0.41268,0.392767,-0.574184,0.587998,-0.92522,0.34617,-0.02872,6071.92,-0.250425,-0.568514,0.277762,-0.732754,-0.73228,0.58463,-0.194,2.31,2.48,2.58,2.92,2.97,3.03,2.85,3.9,2.99,3.94,3.98,3.81,3.89,3.87,3.73,3264,13.6,62611.954,120.739838,1026.405151,-279.101685,1.60770527634099,2.18138354933214,2.52955686067557,43.56591,820.252686,125.627983,131.287552,1190.291992,-45.146118,"COMBO"
247,17,23,31.964,6075.24,-0.412981,0.392716,-0.574239,0.587767,-0.9232,0.34889,-0.02952,6071.94,-0.259888,-0.563624,0.289305,-0.728758,-0.70592,0.62397,-0.19113,2.31,2.48,2.58,2.92,2.97,3.02,2.85,3.9,2.99,3.94,3.98,3.81,3.88,3.87,3.73,3267,13.6125,62611.9665,120.347855,1029.522461,-279.402771,1.60949673136584,2.17173560371881,2.53904941026613,43.604946,820.284241,125.604568,131.366745,1190.549927,-44.761913,"COMBO"
248,17,23,31.994,6075.26,-0.413151,0.39276,-0.574288,0.58757,-0.92311,0.34863,-0.03127,6071.96,-0.26884,-0.558676,0.29966,-0.725127,-0.70028,0.62015,-0.18766,2.31,2.48,2.58,2.92,2.97,3.03,2.85,3.9,2.99,3.94,3.98,3.81,3.88,3.87,3.72,3274,13.641667,62611.995667,119.331398,1036.363403,-279.714874,1.61433449099258,2.15084752731044,2.55947711245178,43.688217,820.350525,125.592949,131.61702,1191.06604,-43.934601,"COMBO"
249,17,23,32.006,6075.28,-0.413275,0.392836,-0.574216,0.587503,-0.92479,0.34886,-0.03442,6071.98,-0.277562,-0.553402,0.30929,-0.721834,-0.64929,0.65093,-0.19516,2.31,2.48,2.58,2.92,2.97,3.03,2.85,3.9,2.99,3.94,3.98,3.82,3.88,3.87,3.73,3277,13.654167,62612.008167,118.78981,1039.075317,-279.706299,1.6164885691135,2.14270484509959,2.56739440025538,43.732845,820.362427,125.605507,131.634644,1191.279053,-43.591019,"COMBO"
250,17,23,32.034,6075.3,-0.413279,0.392915,-0.57417,0.587492,-0.922,0.34957,-0.03479,6072,-0.285731,-0.548182,0.317875,-0.718895,-0.62823,0.67603,-0.19535,2.31,2.48,2.58,2.92,2.97,3.03,2.85,3.9,2.99,3.94,3.98,3.82,3.88,3.87,3.72,3284,13.683333,62612.037333,117.580833,1045.048218,-279.480621,1.6212271500045,2.12520248873353,2.58435178460001,43.805618,820.403137,125.669044,131.630692,1191.774414,-42.930504,"COMBO"
251,17,23,32.044,6075.32,-0.413292,0.393082,-0.574011,0.587527,-0.91736,0.35268,-0.03847,6072.02,-0.293601,-0.543023,0.325863,-0.716058,-0.59869,0.69753,-0.18745,2.31,2.48,2.58,2.92,2.97,3.03,2.85,3.9,2.99,3.94,4,3.81,3.88,3.87,3.72,3286,13.691667,62612.045667,117.203293,1046.674438,-279.354523,1.62274192789223,2.12042477472178,2.58894267797157,43.816544,820.415649,125.689224,131.635773,1191.874268,-42.769802,"COMBO"
252,17,23,32.074,6075.34,-0.413211,0.393334,-0.573847,0.587576,-0.91753,0.35289,-0.0369,6072.04,-0.301515,-0.537763,0.333275,-0.713322,-0.57591,0.72201,-0.1844,2.31,2.48,2.58,2.92,2.97,3.03,2.85,3.9,2.99,3.94,4.01,3.82,3.88,3.87,3.72,3293,13.720833,62612.074833,115.866241,1052.248169,-278.830627,1.62794496579158,2.10388022554644,2.60478939761682,43.854698,820.427307,125.764999,131.595291,1192.194214,-42.183071,"COMBO"
253,17,23,32.085,6075.36,-0.413092,0.393581,-0.573674,0.587663,-0.91961,0.35236,-0.03706,6072.06,-0.309354,-0.532574,0.340659,-0.710364,-0.55258,0.73793,-0.18855,2.31,2.48,2.58,2.92,2.97,3.03,2.85,3.9,2.99,3.94,4.01,3.82,3.88,3.87,3.72,3296,13.733333,62612.087333,115.31797,1054.648926,-278.5896,1.63006520096199,2.09661098946485,2.61174605340525,43.867741,820.436218,125.800507,131.562042,1192.292236,-41.956635,"COMBO"
254,17,23,32.115,6075.38,-0.412936,0.393903,-0.573468,0.587757,-0.92201,0.34839,-0.0383,6072.08,-0.316763,-0.527648,0.348404,-0.70701,-0.53022,0.7575,-0.18412,2.31,2.48,2.58,2.92,2.97,3.03,2.85,3.9,2.99,3.94,4.03,3.82,3.88,3.87,3.72,3303,13.7625,62612.1165,113.815262,1060.057495,-277.828156,1.63581984878416,2.08045744277536,2.62698952444686,43.903065,820.451965,125.851837,131.460144,1192.543091,-41.444633,"COMBO"
255,17,23,32.126,6075.4,-0.412727,0.394244,-0.573273,0.587866,-0.91872,0.34628,-0.03741,6072.1,-0.324399,-0.522558,0.356504,-0.70328,-0.49649,0.78828,-0.17444,2.31,2.48,2.58,2.92,2.97,3.03,2.85,3.9,2.99,3.94,4.03,3.83,3.87,3.87,3.72,3306,13.775,62612.129,113.188065,1062.790161,-277.695404,1.638289153906,2.0718057891034,2.63520331645552,43.911232,820.463806,125.856163,131.424438,1192.66748,-41.228069,"COMBO"
256,17,23,32.155,6075.42,-0.412558,0.394514,-0.573132,0.58794,-0.91987,0.34799,-0.03151,6072.12,-0.331284,-0.518139,0.363891,-0.699547,-0.53477,0.80586,-0.17421,2.31,2.48,2.58,2.92,2.97,3.03,2.85,3.9,2.99,3.94,4.04,3.83,3.87,3.87,3.72,3313,13.804167,62612.158167,111.060753,1067.808838,-276.372375,1.6466447526228,2.05759824736332,2.64787918534127,43.939816,820.481201,125.82193,131.331451,1192.950073,-40.80941,"COMBO"
257,17,23,32.164,6075.44,-0.412451,0.394713,-0.573009,0.588003,-0.92313,0.34476,-0.03409,6072.14,-0.33809,-0.513555,0.370966,-0.695946,-0.48873,0.81137,-0.18717,2.31,2.48,2.58,2.92,2.97,3.02,2.85,3.9,2.99,3.94,4.04,3.83,3.87,3.87,3.72,3315,13.8125,62612.1665,110.479469,1069.240479,-275.943848,1.6489684168049,2.05355844864448,2.65145204085716,43.945469,820.486816,125.80307,131.303391,1193.030029,-40.681141,"COMBO"
258,17,23,32.192,6075.46,-0.412437,0.39489,-0.572957,0.587943,-0.92559,0.34284,-0.03113,6072.16,-0.344284,-0.509129,0.378027,-0.692352,-0.47824,0.81417,-0.22536,2.31,2.48,2.58,2.92,2.97,3.03,2.85,3.9,2.99,3.94,4.05,3.84,3.87,3.86,3.71,3322,13.841667,62612.195667,108.464371,1074.114868,-274.210571,1.65667093920229,2.04007832193151,2.66325134606772,43.951084,820.488892,125.763046,131.077179,1193.348389,-40.15498,"COMBO"
259,17,23,32.198,6075.48,-0.412453,0.394934,-0.572942,0.587918,-0.92484,0.34235,-0.03151,6072.18,-0.349308,-0.504646,0.385352,-0.689072,-0.45693,0.82976,-0.23493,2.31,2.48,2.58,2.92,2.97,3.03,2.84,3.9,3,3.94,4.05,3.84,3.87,3.86,3.71,3323,13.845833,62612.199833,108.230667,1074.784668,-273.928864,1.65752201316585,2.03827192585356,2.66485497824086,43.953812,820.484131,125.764236,131.02977,1193.399414,-40.061096,"COMBO"
260,17,23,32.235,6075.5,-0.41244,0.395029,-0.573099,0.58771,-0.92273,0.34344,-0.03132,6072.2,-0.354137,-0.500346,0.39265,-0.685614,-0.4119,0.84966,-0.23518,2.31,2.48,2.58,2.92,2.97,3.03,2.84,3.9,3.01,3.94,4.05,3.85,3.87,3.86,3.71,3332,13.883333,62612.237333,108.079453,1077.251953,-273.81839,1.65680072550575,2.03013848250515,2.67303139921316,43.919243,820.447571,125.76194,130.656067,1193.779541,-39.317165,"COMBO"
261,17,23,32.245,6075.52,-0.412449,0.395039,-0.573138,0.587659,-0.92032,0.34487,-0.03414,6072.22,-0.358545,-0.495641,0.400455,-0.682218,-0.40608,0.84884,-0.21666,2.31,2.48,2.58,2.92,2.97,3.02,2.84,3.9,3.01,3.94,4.06,3.85,3.86,3.86,3.7,3334,13.891667,62612.245667,108.079453,1077.251953,-273.81839,1.65642138214464,2.03021456573607,2.67303675075964,43.901512,820.442505,125.762688,130.571426,1193.873657,-39.163223,"COMBO"
262,17,23,32.272,6075.54,-0.412409,0.395089,-0.573185,0.587607,-0.92011,0.34731,-0.03784,6072.24,-0.362813,-0.490896,0.407568,-0.679173,-0.39073,0.86321,-0.20295,2.31,2.48,2.58,2.92,2.97,3.02,2.84,3.9,3.02,3.94,4.06,3.87,3.87,3.86,3.7,3341,13.920833,62612.274833,108.079453,1077.251953,-273.81839,1.655234660096,2.03028457566566,2.67321694795462,43.832886,820.424133,125.780342,130.309143,1194.14624,-38.626591,"COMBO"
263,17,23,32.277,6075.56,-0.412281,0.395121,-0.573178,0.587683,-0.91978,0.34853,-0.03866,6072.26,-0.367078,-0.485931,0.413996,-0.676559,-0.34858,0.86825,-0.18244,2.31,2.48,2.58,2.92,2.97,3.02,2.84,3.9,3.02,3.94,4.06,3.88,3.86,3.86,3.7,3342,13.925,62612.279,108.079453,1077.251953,-273.81839,1.65503513648342,2.03031918021614,2.6732243769109,43.819458,820.41864,125.788155,130.26297,1194.187256,-38.559635,"COMBO"
264,17,23,32.312,6075.58,-0.41217,0.395244,-0.573223,0.587634,-0.92304,0.34466,-0.03789,6072.28,-0.371398,-0.480706,0.419752,-0.674384,-0.32438,0.86006,-0.17414,2.31,2.48,2.58,2.92,2.97,3.02,2.84,3.9,3.02,3.94,4.07,3.88,3.86,3.86,3.69,3350,13.958333,62612.312333,108.079453,1077.251953,-273.81839,1.65358752914014,2.0303642612451,2.67347867220351,43.719147,820.367249,125.81588,129.930786,1194.456177,-38.009754,"COMBO"
265,17,23,32.32,6075.6,-0.411989,0.395351,-0.573242,0.587671,-0.92296,0.34872,-0.03547,6072.3,-0.376327,-0.475319,0.42529,-0.671996,-0.33463,0.8874,-0.14765,2.31,2.48,2.58,2.92,2.97,3.02,2.84,3.9,3.03,3.94,4.08,3.9,3.86,3.86,3.69,3352,13.966667,62612.320667,108.079453,1077.251953,-273.81839,1.65328488810503,2.03038872473586,2.67351635017268,43.698753,820.354553,125.819427,129.861465,1194.517822,-37.892895,"COMBO"
266,17,23,32.353,6075.62,-0.411844,0.395529,-0.573242,0.587651,-0.92093,0.34802,-0.03435,6072.32,-0.380667,-0.470598,0.429974,-0.66989,-0.2925,0.87558,-0.15812,2.31,2.48,2.58,2.92,2.97,3.03,2.84,3.9,3.03,3.94,4.08,3.91,3.87,3.85,3.69,3360,14,62612.354,108.079453,1077.251953,-273.81839,1.65237261144372,2.03038294962211,2.67370710962917,43.602596,820.316589,125.836876,129.665085,1194.755859,-37.388439,"COMBO"
267,17,23,32.358,6075.64,-0.41172,0.395701,-0.573228,0.587637,-0.9205,0.34574,-0.03167,6072.34,-0.38507,-0.466151,0.43424,-0.667728,-0.26998,0.8836,-0.15871,2.31,2.48,2.58,2.92,2.97,3.02,2.84,3.9,3.03,3.94,4.09,3.93,3.87,3.85,3.68,3361,14.004167,62612.358167,108.079453,1077.251953,-273.81839,1.65227515072487,2.03037717599038,2.67373246451641,43.598068,820.307434,125.83503,129.645294,1194.786865,-37.320263,"COMBO"
268,17,23,32.394,6075.66,-0.411593,0.395844,-0.573261,0.587597,-0.9225,0.34732,-0.03036,6072.36,-0.3891,-0.462394,0.438527,-0.665197,-0.27112,0.90327,-0.17421,2.31,2.48,2.58,2.92,2.97,3.02,2.84,3.9,3.03,3.94,4.09,3.94,3.87,3.85,3.68,3370,14.041667,62612.395667,108.079453,1077.251953,-273.81839,1.65154612403181,2.03049838435862,2.67375901074681,43.538261,820.295654,125.826553,129.505402,1195.105225,-36.734554,"COMBO"
269,17,23,32.402,6075.68,-0.411525,0.395963,-0.573283,0.587543,-0.92221,0.34715,-0.02806,6072.38,-0.392908,-0.459002,0.442725,-0.662521,-0.26294,0.91403,-0.17946,2.31,2.48,2.58,2.92,2.97,3.03,2.84,3.9,3.03,3.94,4.09,3.96,3.87,3.84,3.68,3372,14.05,62612.404,108.079453,1077.251953,-273.81839,1.65144847862243,2.0304889293996,2.67378784474274,43.533077,820.284729,125.825119,129.49144,1195.168457,-36.599365,"COMBO"
270,17,23,32.433,6075.7,-0.411434,0.396078,-0.573424,0.587392,-0.92402,0.34678,-0.02804,6072.4,-0.396866,-0.455696,0.44654,-0.659879,-0.23816,0.93846,-0.19346,2.31,2.48,2.58,2.92,2.97,3.02,2.84,3.9,3.03,3.94,4.1,3.98,3.88,3.84,3.68,3379,14.079167,62612.433167,108.079453,1077.251953,-273.81839,1.6513163544797,2.03040208129937,2.67389998643373,43.51857,820.278198,125.830742,129.496445,1195.368408,-36.141956,"COMBO"
271,17,23,32.441,6075.72,-0.411443,0.396152,-0.573451,0.587309,-0.92508,0.34658,-0.02621,6072.42,-0.400678,-0.452532,0.450442,-0.657095,-0.24421,0.93844,-0.18895,2.31,2.48,2.58,2.92,2.97,3.02,2.84,3.9,3.02,3.94,4.11,3.99,3.88,3.83,3.68,3381,14.0875,62612.4415,108.079453,1077.251953,-273.81839,1.65122871491178,2.03040011088725,2.67391938426915,43.516613,820.280212,125.836182,129.483551,1195.425171,-36.02446,"COMBO"
272,17,23,32.474,6075.74,-0.411458,0.396184,-0.573469,0.587261,-0.92353,0.34736,-0.02912,6072.44,-0.404217,-0.4496,0.454448,-0.654176,-0.23115,0.93581,-0.19789,2.31,2.48,2.58,2.92,2.97,3.02,2.84,3.9,3.02,3.94,4.11,4,3.89,3.83,3.68,3389,14.120833,62612.474833,108.079453,1077.251953,-273.81839,1.65115568817202,2.03046383657599,2.67387095121264,43.509602,820.302063,125.845116,129.508408,1195.684937,-35.538254,"COMBO"
273,17,23,32.483,6075.76,-0.411355,0.396142,-0.573526,0.587304,-0.91994,0.34966,-0.0304,6072.46,-0.407799,-0.446546,0.457997,-0.651564,-0.19972,0.92435,-0.18863,2.31,2.48,2.58,2.92,2.97,3.02,2.84,3.9,3.03,3.94,4.12,4.01,3.89,3.82,3.68,3391,14.129167,62612.483167,108.079453,1077.251953,-273.81839,1.65120158056615,2.03049400253074,2.67383202068941,43.513783,820.305237,125.853035,129.529434,1195.740845,-35.444984,"COMBO"
274,17,23,32.514,6075.78,-0.411407,0.396151,-0.573554,0.587234,-0.92242,0.3501,-0.02712,6072.48,-0.41161,-0.443153,0.461205,-0.649217,-0.18324,0.93394,-0.17944,2.31,2.48,2.58,2.92,2.97,3.02,2.83,3.9,3.03,3.94,4.12,4.03,3.9,3.82,3.68,3399,14.1625,62612.5165,108.079453,1077.251953,-273.81839,1.65136952609203,2.03045521815155,2.67383689429841,43.52832,820.311951,125.890701,129.612122,1195.940918,-35.023186,"COMBO"
275,17,23,32.519,6075.8,-0.411481,0.396151,-0.573608,0.587129,-0.92493,0.34689,-0.0279,6072.5,-0.415418,-0.439472,0.464853,-0.646687,-0.17081,0.94582,-0.21802,2.31,2.48,2.58,2.92,2.97,3.02,2.83,3.9,3.04,3.94,4.12,4.04,3.9,3.82,3.68,3400,14.166667,62612.520667,108.079453,1077.251953,-273.81839,1.65140793338206,2.03045495430487,2.67382949705663,43.53463,820.317322,125.89106,129.626984,1195.966309,-34.972866,"COMBO"
276,17,23,32.553,6075.82,-0.411582,0.39612,-0.573604,0.587084,-0.92554,0.34623,-0.03106,6072.52,-0.419237,-0.435961,0.468094,-0.644257,-0.21727,0.94939,-0.18492,2.31,2.48,2.58,2.92,2.97,3.02,2.83,3.9,3.05,3.94,4.13,4.05,3.91,3.82,3.68,3408,14.2,62612.554,108.079453,1077.251953,-273.81839,1.65176613272026,2.03047155282525,2.67374151055918,43.564827,820.330444,125.940384,129.753464,1196.140015,-34.642033,"COMBO"
277,17,23,32.558,6075.84,-0.411619,0.396161,-0.573557,0.587076,-0.91949,0.34762,-0.0308,6072.54,-0.42279,-0.432524,0.470834,-0.642252,-0.1404,0.92833,-0.18699,2.31,2.48,2.58,2.92,2.97,3.02,2.83,3.9,3.06,3.94,4.13,4.05,3.92,3.81,3.67,3409,14.204167,62612.558167,108.079453,1077.251953,-273.81839,1.65185107822655,2.03045825175689,2.67373762728014,43.565746,820.335571,125.947418,129.779587,1196.15564,-34.604641,"COMBO"
278,17,23,32.593,6075.86,-0.411606,0.396148,-0.573582,0.58707,-0.91975,0.34903,-0.02769,6072.56,-0.426096,-0.429031,0.473261,-0.640623,-0.13299,0.92036,-0.189,2.31,2.48,2.58,2.92,2.97,3.02,2.82,3.9,3.07,3.94,4.13,4.06,3.93,3.81,3.67,3418,14.241667,62612.595667,108.079453,1077.251953,-273.81839,1.65259061246968,2.03040785426176,2.67363847346078,43.59737,820.346802,126.001328,129.999084,1196.262695,-34.376884,"COMBO"
279,17,23,32.598,6075.88,-0.41168,0.396171,-0.573519,0.587064,-0.92522,0.34746,-0.02938,6072.58,-0.429087,-0.42568,0.475672,-0.639075,-0.14164,0.93033,-0.19031,2.31,2.48,2.58,2.92,2.97,3.02,2.82,3.9,3.08,3.93,4.13,4.07,3.94,3.81,3.68,3419,14.245833,62612.599833,108.079453,1077.251953,-273.81839,1.65266902935339,2.0304088336609,2.6736216370751,43.605942,820.342102,126.005722,130.021606,1196.271362,-34.361958,"COMBO"
280,17,23,32.633,6075.9,-0.411751,0.39622,-0.573467,0.587032,-0.92336,0.34408,-0.03006,6072.6,-0.432085,-0.421911,0.477822,-0.63795,-0.13354,0.94296,-0.19557,2.31,2.48,2.58,2.92,2.97,3.02,2.81,3.9,3.09,3.94,4.13,4.08,3.94,3.8,3.67,3427,14.279167,62612.633167,108.079453,1077.251953,-273.81839,1.65299106384613,2.0302518458618,2.67371133023147,43.625797,820.351501,126.026688,130.126663,1196.335938,-34.145157,"COMBO"
281,17,23,32.642,6075.92,-0.411766,0.396291,-0.573376,0.587062,-0.92149,0.34499,-0.02961,6072.62,-0.435451,-0.417339,0.480163,-0.63691,-0.10767,0.95074,-0.20215,2.31,2.48,2.58,2.92,2.98,3.02,2.81,3.89,3.09,3.93,4.13,4.08,3.95,3.8,3.67,3430,14.291667,62612.645667,108.079453,1077.251953,-273.81839,1.65295692953176,2.03022294431569,2.67374680647364,43.635315,820.345215,126.027763,130.133545,1196.415527,-33.966663,"COMBO"
282,17,23,32.672,6075.94,-0.411751,0.396415,-0.573279,0.587083,-0.92226,0.34429,-0.02897,6072.64,-0.437341,-0.413912,0.481889,-0.636548,-0.1193,0.93508,-0.20686,2.31,2.48,2.59,2.92,2.97,3.02,2.8,3.9,3.1,3.93,4.14,4.09,3.96,3.8,3.67,3437,14.320833,62612.674833,108.079453,1077.251953,-273.81839,1.65289677155541,2.03026108096808,2.67372136785713,43.670925,820.335999,126.024307,130.174088,1196.731079,-33.353149,"COMBO"
283,17,23,32.677,6075.96,-0.411697,0.396583,-0.573188,0.587097,-0.92461,0.34316,-0.02848,6072.66,-0.438483,-0.411438,0.483334,-0.63627,-0.06189,0.9036,-0.18685,2.31,2.48,2.59,2.91,2.97,3.02,2.79,3.89,3.11,3.92,4.14,4.08,3.96,3.8,3.67,3438,14.325,62612.679,108.079453,1077.251953,-273.81839,1.65292316915407,2.03028929981485,2.67368814189774,43.67268,820.343506,126.024605,130.189941,1196.785278,-33.261826,"COMBO"
284,17,23,32.713,6075.98,-0.411637,0.396758,-0.573068,0.587138,-0.9225,0.34392,-0.02822,6072.68,-0.439103,-0.410181,0.484628,-0.635669,-0.05774,0.87544,-0.17557,2.31,2.48,2.59,2.91,2.98,3.02,2.78,3.89,3.12,3.92,4.14,4.09,3.97,3.79,3.67,3447,14.3625,62612.7165,108.079453,1077.251953,-273.81839,1.65341036965531,2.03075907567446,2.67312507832283,43.65118,820.337585,126.017761,130.398834,1197.318481,-32.486656,"COMBO"
285,17,23,32.722,6076,-0.411598,0.396926,-0.572973,0.587144,-0.92418,0.34438,-0.02895,6072.7,-0.438965,-0.410231,0.486233,-0.634506,-0.06198,0.86436,-0.18039,2.31,2.48,2.59,2.91,2.98,3.02,2.78,3.89,3.12,3.91,4.14,4.09,3.97,3.79,3.67,3449,14.370833,62612.724833,108.079453,1077.251953,-273.81839,1.65357706459048,2.03085900356418,2.67299235814846,43.629738,820.330994,126.03167,130.459534,1197.427368,-32.332729,"COMBO"
286,17,23,32.752,6076.02,-0.411577,0.397124,-0.572877,0.587119,-0.92955,0.34253,-0.03141,6072.72,-0.437688,-0.410974,0.488236,-0.633368,-0.08222,0.88872,-0.18991,2.31,2.48,2.59,2.9,2.98,3.02,2.77,3.89,3.13,3.91,4.14,4.09,3.98,3.79,3.67,3456,14.4,62612.754,108.079453,1077.251953,-273.81839,1.65414132624365,2.03080638871425,2.67292852594467,43.543167,820.273804,126.078125,130.655304,1197.646973,-31.873573,"COMBO"
287,17,23,32.76,6076.04,-0.411508,0.397423,-0.572786,0.587053,-0.92571,0.34178,-0.03498,6072.74,-0.436008,-0.411996,0.489738,-0.632703,-0.07204,0.8976,-0.1966,2.31,2.48,2.59,2.9,2.98,3.02,2.76,3.89,3.13,3.9,4.14,4.1,3.99,3.79,3.67,3458,14.408333,62612.762333,108.079453,1077.251953,-273.81839,1.65426561044611,2.03078932545953,2.67291976551013,43.514683,820.26239,126.099586,130.697189,1197.687012,-31.785849,"COMBO"
288,17,23,32.792,6076.06,-0.411344,0.397779,-0.572655,0.587056,-0.91765,0.34229,-0.03721,6072.76,-0.434353,-0.412672,0.490386,-0.632898,-0.06662,0.89633,-0.19788,2.31,2.48,2.59,2.9,2.98,3.01,2.75,3.89,3.13,3.89,4.14,4.1,3.99,3.79,3.67,3466,14.441667,62612.795667,108.079453,1077.251953,-273.81839,1.65468448810194,2.03059012915348,2.6730298001889,43.38467,820.210693,126.191917,130.827499,1197.729004,-31.590578,"COMBO"
289,17,23,32.797,6076.08,-0.411196,0.398102,-0.572564,0.587029,-0.91772,0.34474,-0.03268,6072.78,-0.43228,-0.413225,0.490685,-0.633725,-0.08248,0.90648,-0.20065,2.31,2.48,2.59,2.9,2.98,3.01,2.73,3.88,3.14,3.89,4.14,4.1,4,3.79,3.67,3467,14.445833,62612.799833,108.079453,1077.251953,-273.81839,1.65473603566576,2.03054253280604,2.6730660902346,43.3657,820.204712,126.209541,130.842087,1197.720825,-31.57929,"COMBO"
290,17,23,32.833,6076.1,-0.411067,0.398345,-0.572457,0.587059,-0.9229,0.34663,-0.03472,6072.8,-0.429498,-0.413813,0.49113,-0.634887,-0.08697,0.92086,-0.20851,2.31,2.47,2.59,2.9,2.98,3.01,2.72,3.88,3.15,3.88,4.14,4.1,4,3.79,3.67,3475,14.479167,62612.833167,108.079453,1077.251953,-273.81839,1.65519212056425,2.03033146470865,2.67317955105537,43.2761,820.171936,126.308647,130.963287,1197.657959,-31.588535,"COMBO"
